Created as New Dataset,Sample 002 By Administrator Date Monday, June 09 2025
cm-1,A
4000.00,0.0067
3999.00,0.0067
3998.00,0.0067
3997.00,0.0067
3996.00,0.0067
3995.00,0.0067
3994.00,0.0067
3993.00,0.0067
3992.00,0.0067
3991.00,0.0067
3990.00,0.0067
3989.00,0.0067
3988.00,0.0067
3987.00,0.0068
3986.00,0.0068
3985.00,0.0068
3984.00,0.0067
3983.00,0.0067
3982.00,0.0067
3981.00,0.0067
3980.00,0.0067
3979.00,0.0067
3978.00,0.0068
3977.00,0.0068
3976.00,0.0068
3975.00,0.0069
3974.00,0.0069
3973.00,0.0068
3972.00,0.0068
3971.00,0.0068
3970.00,0.0067
3969.00,0.0067
3968.00,0.0067
3967.00,0.0067
3966.00,0.0067
3965.00,0.0067
3964.00,0.0068
3963.00,0.0068
3962.00,0.0068
3961.00,0.0068
3960.00,0.0068
3959.00,0.0069
3958.00,0.0069
3957.00,0.0069
3956.00,0.0069
3955.00,0.0069
3954.00,0.0069
3953.00,0.0069
3952.00,0.0069
3951.00,0.0069
3950.00,0.0069
3949.00,0.0069
3948.00,0.0069
3947.00,0.0069
3946.00,0.0069
3945.00,0.0069
3944.00,0.0069
3943.00,0.0068
3942.00,0.0067
3941.00,0.0067
3940.00,0.0067
3939.00,0.0068
3938.00,0.0068
3937.00,0.0068
3936.00,0.0069
3935.00,0.0070
3934.00,0.0070
3933.00,0.0070
3932.00,0.0070
3931.00,0.0070
3930.00,0.0070
3929.00,0.0069
3928.00,0.0069
3927.00,0.0069
3926.00,0.0069
3925.00,0.0069
3924.00,0.0068
3923.00,0.0068
3922.00,0.0069
3921.00,0.0069
3920.00,0.0070
3919.00,0.0070
3918.00,0.0070
3917.00,0.0070
3916.00,0.0069
3915.00,0.0068
3914.00,0.0068
3913.00,0.0068
3912.00,0.0067
3911.00,0.0067
3910.00,0.0067
3909.00,0.0067
3908.00,0.0067
3907.00,0.0068
3906.00,0.0069
3905.00,0.0070
3904.00,0.0071
3903.00,0.0072
3902.00,0.0073
3901.00,0.0074
3900.00,0.0073
3899.00,0.0073
3898.00,0.0071
3897.00,0.0071
3896.00,0.0070
3895.00,0.0070
3894.00,0.0069
3893.00,0.0069
3892.00,0.0069
3891.00,0.0068
3890.00,0.0068
3889.00,0.0069
3888.00,0.0070
3887.00,0.0071
3886.00,0.0071
3885.00,0.0070
3884.00,0.0070
3883.00,0.0071
3882.00,0.0071
3881.00,0.0071
3880.00,0.0071
3879.00,0.0070
3878.00,0.0070
3877.00,0.0070
3876.00,0.0071
3875.00,0.0071
3874.00,0.0071
3873.00,0.0071
3872.00,0.0071
3871.00,0.0072
3870.00,0.0072
3869.00,0.0072
3868.00,0.0071
3867.00,0.0072
3866.00,0.0073
3865.00,0.0074
3864.00,0.0073
3863.00,0.0072
3862.00,0.0071
3861.00,0.0071
3860.00,0.0071
3859.00,0.0070
3858.00,0.0068
3857.00,0.0066
3856.00,0.0066
3855.00,0.0067
3854.00,0.0070
3853.00,0.0071
3852.00,0.0072
3851.00,0.0073
3850.00,0.0074
3849.00,0.0074
3848.00,0.0073
3847.00,0.0072
3846.00,0.0071
3845.00,0.0071
3844.00,0.0070
3843.00,0.0070
3842.00,0.0071
3841.00,0.0072
3840.00,0.0073
3839.00,0.0074
3838.00,0.0074
3837.00,0.0074
3836.00,0.0074
3835.00,0.0073
3834.00,0.0073
3833.00,0.0072
3832.00,0.0072
3831.00,0.0072
3830.00,0.0072
3829.00,0.0072
3828.00,0.0071
3827.00,0.0070
3826.00,0.0069
3825.00,0.0069
3824.00,0.0069
3823.00,0.0071
3822.00,0.0073
3821.00,0.0073
3820.00,0.0072
3819.00,0.0072
3818.00,0.0073
3817.00,0.0073
3816.00,0.0073
3815.00,0.0072
3814.00,0.0071
3813.00,0.0070
3812.00,0.0069
3811.00,0.0068
3810.00,0.0067
3809.00,0.0067
3808.00,0.0068
3807.00,0.0069
3806.00,0.0070
3805.00,0.0071
3804.00,0.0072
3803.00,0.0073
3802.00,0.0073
3801.00,0.0073
3800.00,0.0073
3799.00,0.0073
3798.00,0.0073
3797.00,0.0072
3796.00,0.0071
3795.00,0.0069
3794.00,0.0069
3793.00,0.0068
3792.00,0.0068
3791.00,0.0068
3790.00,0.0067
3789.00,0.0067
3788.00,0.0067
3787.00,0.0067
3786.00,0.0067
3785.00,0.0067
3784.00,0.0068
3783.00,0.0068
3782.00,0.0069
3781.00,0.0069
3780.00,0.0069
3779.00,0.0068
3778.00,0.0067
3777.00,0.0067
3776.00,0.0067
3775.00,0.0068
3774.00,0.0068
3773.00,0.0068
3772.00,0.0068
3771.00,0.0069
3770.00,0.0069
3769.00,0.0070
3768.00,0.0070
3767.00,0.0071
3766.00,0.0071
3765.00,0.0070
3764.00,0.0070
3763.00,0.0070
3762.00,0.0071
3761.00,0.0072
3760.00,0.0072
3759.00,0.0072
3758.00,0.0072
3757.00,0.0072
3756.00,0.0073
3755.00,0.0073
3754.00,0.0074
3753.00,0.0074
3752.00,0.0075
3751.00,0.0076
3750.00,0.0077
3749.00,0.0079
3748.00,0.0080
3747.00,0.0080
3746.00,0.0081
3745.00,0.0081
3744.00,0.0080
3743.00,0.0079
3742.00,0.0079
3741.00,0.0078
3740.00,0.0078
3739.00,0.0078
3738.00,0.0079
3737.00,0.0080
3736.00,0.0080
3735.00,0.0079
3734.00,0.0079
3733.00,0.0079
3732.00,0.0079
3731.00,0.0079
3730.00,0.0078
3729.00,0.0077
3728.00,0.0077
3727.00,0.0078
3726.00,0.0077
3725.00,0.0077
3724.00,0.0077
3723.00,0.0076
3722.00,0.0076
3721.00,0.0075
3720.00,0.0075
3719.00,0.0075
3718.00,0.0074
3717.00,0.0074
3716.00,0.0074
3715.00,0.0075
3714.00,0.0076
3713.00,0.0078
3712.00,0.0080
3711.00,0.0081
3710.00,0.0081
3709.00,0.0081
3708.00,0.0081
3707.00,0.0081
3706.00,0.0081
3705.00,0.0081
3704.00,0.0081
3703.00,0.0081
3702.00,0.0081
3701.00,0.0080
3700.00,0.0080
3699.00,0.0081
3698.00,0.0081
3697.00,0.0082
3696.00,0.0082
3695.00,0.0083
3694.00,0.0085
3693.00,0.0086
3692.00,0.0087
3691.00,0.0088
3690.00,0.0089
3689.00,0.0090
3688.00,0.0091
3687.00,0.0092
3686.00,0.0093
3685.00,0.0093
3684.00,0.0094
3683.00,0.0094
3682.00,0.0095
3681.00,0.0096
3680.00,0.0097
3679.00,0.0098
3678.00,0.0099
3677.00,0.0102
3676.00,0.0105
3675.00,0.0107
3674.00,0.0110
3673.00,0.0113
3672.00,0.0116
3671.00,0.0119
3670.00,0.0120
3669.00,0.0120
3668.00,0.0120
3667.00,0.0121
3666.00,0.0123
3665.00,0.0124
3664.00,0.0124
3663.00,0.0125
3662.00,0.0126
3661.00,0.0127
3660.00,0.0129
3659.00,0.0132
3658.00,0.0135
3657.00,0.0139
3656.00,0.0142
3655.00,0.0145
3654.00,0.0149
3653.00,0.0153
3652.00,0.0157
3651.00,0.0162
3650.00,0.0166
3649.00,0.0169
3648.00,0.0173
3647.00,0.0176
3646.00,0.0179
3645.00,0.0181
3644.00,0.0184
3643.00,0.0186
3642.00,0.0187
3641.00,0.0189
3640.00,0.0192
3639.00,0.0195
3638.00,0.0199
3637.00,0.0202
3636.00,0.0206
3635.00,0.0210
3634.00,0.0213
3633.00,0.0217
3632.00,0.0220
3631.00,0.0225
3630.00,0.0231
3629.00,0.0237
3628.00,0.0242
3627.00,0.0246
3626.00,0.0251
3625.00,0.0256
3624.00,0.0260
3623.00,0.0263
3622.00,0.0267
3621.00,0.0270
3620.00,0.0274
3619.00,0.0277
3618.00,0.0282
3617.00,0.0287
3616.00,0.0292
3615.00,0.0298
3614.00,0.0302
3613.00,0.0306
3612.00,0.0310
3611.00,0.0314
3610.00,0.0319
3609.00,0.0323
3608.00,0.0327
3607.00,0.0330
3606.00,0.0334
3605.00,0.0338
3604.00,0.0342
3603.00,0.0346
3602.00,0.0349
3601.00,0.0353
3600.00,0.0357
3599.00,0.0361
3598.00,0.0365
3597.00,0.0369
3596.00,0.0373
3595.00,0.0377
3594.00,0.0381
3593.00,0.0386
3592.00,0.0390
3591.00,0.0395
3590.00,0.0400
3589.00,0.0405
3588.00,0.0410
3587.00,0.0414
3586.00,0.0419
3585.00,0.0424
3584.00,0.0428
3583.00,0.0432
3582.00,0.0435
3581.00,0.0438
3580.00,0.0441
3579.00,0.0444
3578.00,0.0448
3577.00,0.0452
3576.00,0.0456
3575.00,0.0460
3574.00,0.0465
3573.00,0.0469
3572.00,0.0474
3571.00,0.0478
3570.00,0.0483
3569.00,0.0488
3568.00,0.0492
3567.00,0.0496
3566.00,0.0501
3565.00,0.0506
3564.00,0.0512
3563.00,0.0517
3562.00,0.0521
3561.00,0.0525
3560.00,0.0528
3559.00,0.0531
3558.00,0.0534
3557.00,0.0538
3556.00,0.0542
3555.00,0.0546
3554.00,0.0550
3553.00,0.0554
3552.00,0.0559
3551.00,0.0564
3550.00,0.0568
3549.00,0.0573
3548.00,0.0577
3547.00,0.0581
3546.00,0.0585
3545.00,0.0589
3544.00,0.0593
3543.00,0.0597
3542.00,0.0601
3541.00,0.0606
3540.00,0.0610
3539.00,0.0613
3538.00,0.0617
3537.00,0.0621
3536.00,0.0625
3535.00,0.0629
3534.00,0.0633
3533.00,0.0636
3532.00,0.0640
3531.00,0.0644
3530.00,0.0647
3529.00,0.0651
3528.00,0.0656
3527.00,0.0661
3526.00,0.0665
3525.00,0.0670
3524.00,0.0674
3523.00,0.0677
3522.00,0.0681
3521.00,0.0684
3520.00,0.0688
3519.00,0.0691
3518.00,0.0694
3517.00,0.0698
3516.00,0.0702
3515.00,0.0706
3514.00,0.0711
3513.00,0.0715
3512.00,0.0718
3511.00,0.0722
3510.00,0.0725
3509.00,0.0729
3508.00,0.0733
3507.00,0.0737
3506.00,0.0742
3505.00,0.0746
3504.00,0.0750
3503.00,0.0753
3502.00,0.0756
3501.00,0.0760
3500.00,0.0764
3499.00,0.0767
3498.00,0.0771
3497.00,0.0775
3496.00,0.0779
3495.00,0.0782
3494.00,0.0786
3493.00,0.0790
3492.00,0.0793
3491.00,0.0797
3490.00,0.0801
3489.00,0.0805
3488.00,0.0808
3487.00,0.0812
3486.00,0.0815
3485.00,0.0819
3484.00,0.0823
3483.00,0.0826
3482.00,0.0830
3481.00,0.0834
3480.00,0.0837
3479.00,0.0841
3478.00,0.0844
3477.00,0.0848
3476.00,0.0851
3475.00,0.0855
3474.00,0.0858
3473.00,0.0862
3472.00,0.0865
3471.00,0.0869
3470.00,0.0873
3469.00,0.0877
3468.00,0.0880
3467.00,0.0884
3466.00,0.0887
3465.00,0.0891
3464.00,0.0895
3463.00,0.0898
3462.00,0.0902
3461.00,0.0905
3460.00,0.0908
3459.00,0.0911
3458.00,0.0914
3457.00,0.0918
3456.00,0.0921
3455.00,0.0924
3454.00,0.0928
3453.00,0.0931
3452.00,0.0934
3451.00,0.0937
3450.00,0.0941
3449.00,0.0944
3448.00,0.0947
3447.00,0.0951
3446.00,0.0954
3445.00,0.0957
3444.00,0.0960
3443.00,0.0963
3442.00,0.0966
3441.00,0.0969
3440.00,0.0973
3439.00,0.0977
3438.00,0.0981
3437.00,0.0984
3436.00,0.0987
3435.00,0.0990
3434.00,0.0993
3433.00,0.0995
3432.00,0.0998
3431.00,0.1001
3430.00,0.1005
3429.00,0.1008
3428.00,0.1010
3427.00,0.1013
3426.00,0.1015
3425.00,0.1018
3424.00,0.1021
3423.00,0.1023
3422.00,0.1026
3421.00,0.1029
3420.00,0.1032
3419.00,0.1034
3418.00,0.1037
3417.00,0.1040
3416.00,0.1043
3415.00,0.1045
3414.00,0.1048
3413.00,0.1051
3412.00,0.1053
3411.00,0.1056
3410.00,0.1058
3409.00,0.1060
3408.00,0.1062
3407.00,0.1064
3406.00,0.1066
3405.00,0.1069
3404.00,0.1072
3403.00,0.1075
3402.00,0.1077
3401.00,0.1080
3400.00,0.1082
3399.00,0.1083
3398.00,0.1084
3397.00,0.1086
3396.00,0.1088
3395.00,0.1089
3394.00,0.1091
3393.00,0.1093
3392.00,0.1094
3391.00,0.1096
3390.00,0.1097
3389.00,0.1098
3388.00,0.1099
3387.00,0.1101
3386.00,0.1102
3385.00,0.1104
3384.00,0.1106
3383.00,0.1108
3382.00,0.1109
3381.00,0.1110
3380.00,0.1111
3379.00,0.1112
3378.00,0.1113
3377.00,0.1114
3376.00,0.1115
3375.00,0.1115
3374.00,0.1116
3373.00,0.1117
3372.00,0.1118
3371.00,0.1120
3370.00,0.1121
3369.00,0.1122
3368.00,0.1122
3367.00,0.1123
3366.00,0.1123
3365.00,0.1123
3364.00,0.1124
3363.00,0.1124
3362.00,0.1125
3361.00,0.1126
3360.00,0.1126
3359.00,0.1127
3358.00,0.1127
3357.00,0.1127
3356.00,0.1128
3355.00,0.1128
3354.00,0.1129
3353.00,0.1130
3352.00,0.1130
3351.00,0.1131
3350.00,0.1130
3349.00,0.1130
3348.00,0.1129
3347.00,0.1129
3346.00,0.1129
3345.00,0.1130
3344.00,0.1130
3343.00,0.1131
3342.00,0.1131
3341.00,0.1131
3340.00,0.1131
3339.00,0.1131
3338.00,0.1131
3337.00,0.1130
3336.00,0.1129
3335.00,0.1129
3334.00,0.1129
3333.00,0.1129
3332.00,0.1130
3331.00,0.1130
3330.00,0.1129
3329.00,0.1129
3328.00,0.1129
3327.00,0.1129
3326.00,0.1128
3325.00,0.1128
3324.00,0.1128
3323.00,0.1128
3322.00,0.1127
3321.00,0.1127
3320.00,0.1127
3319.00,0.1126
3318.00,0.1126
3317.00,0.1126
3316.00,0.1126
3315.00,0.1125
3314.00,0.1125
3313.00,0.1125
3312.00,0.1125
3311.00,0.1125
3310.00,0.1125
3309.00,0.1125
3308.00,0.1124
3307.00,0.1124
3306.00,0.1123
3305.00,0.1123
3304.00,0.1123
3303.00,0.1122
3302.00,0.1122
3301.00,0.1122
3300.00,0.1121
3299.00,0.1120
3298.00,0.1120
3297.00,0.1119
3296.00,0.1119
3295.00,0.1118
3294.00,0.1118
3293.00,0.1118
3292.00,0.1117
3291.00,0.1117
3290.00,0.1117
3289.00,0.1116
3288.00,0.1115
3287.00,0.1114
3286.00,0.1113
3285.00,0.1112
3284.00,0.1111
3283.00,0.1110
3282.00,0.1109
3281.00,0.1108
3280.00,0.1107
3279.00,0.1106
3278.00,0.1105
3277.00,0.1103
3276.00,0.1102
3275.00,0.1100
3274.00,0.1099
3273.00,0.1097
3272.00,0.1095
3271.00,0.1093
3270.00,0.1092
3269.00,0.1090
3268.00,0.1088
3267.00,0.1086
3266.00,0.1084
3265.00,0.1082
3264.00,0.1079
3263.00,0.1077
3262.00,0.1075
3261.00,0.1073
3260.00,0.1071
3259.00,0.1068
3258.00,0.1066
3257.00,0.1063
3256.00,0.1061
3255.00,0.1058
3254.00,0.1056
3253.00,0.1053
3252.00,0.1051
3251.00,0.1048
3250.00,0.1045
3249.00,0.1043
3248.00,0.1040
3247.00,0.1037
3246.00,0.1035
3245.00,0.1032
3244.00,0.1029
3243.00,0.1026
3242.00,0.1024
3241.00,0.1021
3240.00,0.1019
3239.00,0.1016
3238.00,0.1013
3237.00,0.1010
3236.00,0.1007
3235.00,0.1004
3234.00,0.1001
3233.00,0.0998
3232.00,0.0995
3231.00,0.0992
3230.00,0.0989
3229.00,0.0987
3228.00,0.0984
3227.00,0.0981
3226.00,0.0978
3225.00,0.0975
3224.00,0.0972
3223.00,0.0969
3222.00,0.0966
3221.00,0.0963
3220.00,0.0959
3219.00,0.0956
3218.00,0.0953
3217.00,0.0950
3216.00,0.0948
3215.00,0.0945
3214.00,0.0941
3213.00,0.0938
3212.00,0.0935
3211.00,0.0931
3210.00,0.0927
3209.00,0.0924
3208.00,0.0920
3207.00,0.0917
3206.00,0.0913
3205.00,0.0910
3204.00,0.0907
3203.00,0.0904
3202.00,0.0900
3201.00,0.0896
3200.00,0.0893
3199.00,0.0889
3198.00,0.0885
3197.00,0.0882
3196.00,0.0878
3195.00,0.0875
3194.00,0.0871
3193.00,0.0867
3192.00,0.0863
3191.00,0.0859
3190.00,0.0856
3189.00,0.0852
3188.00,0.0848
3187.00,0.0844
3186.00,0.0840
3185.00,0.0836
3184.00,0.0832
3183.00,0.0828
3182.00,0.0824
3181.00,0.0821
3180.00,0.0817
3179.00,0.0813
3178.00,0.0809
3177.00,0.0805
3176.00,0.0802
3175.00,0.0798
3174.00,0.0794
3173.00,0.0790
3172.00,0.0786
3171.00,0.0782
3170.00,0.0777
3169.00,0.0773
3168.00,0.0769
3167.00,0.0764
3166.00,0.0760
3165.00,0.0756
3164.00,0.0752
3163.00,0.0748
3162.00,0.0744
3161.00,0.0740
3160.00,0.0736
3159.00,0.0732
3158.00,0.0728
3157.00,0.0724
3156.00,0.0720
3155.00,0.0716
3154.00,0.0712
3153.00,0.0708
3152.00,0.0705
3151.00,0.0701
3150.00,0.0697
3149.00,0.0693
3148.00,0.0690
3147.00,0.0686
3146.00,0.0683
3145.00,0.0679
3144.00,0.0675
3143.00,0.0671
3142.00,0.0667
3141.00,0.0663
3140.00,0.0659
3139.00,0.0656
3138.00,0.0652
3137.00,0.0649
3136.00,0.0645
3135.00,0.0641
3134.00,0.0638
3133.00,0.0634
3132.00,0.0631
3131.00,0.0627
3130.00,0.0624
3129.00,0.0621
3128.00,0.0618
3127.00,0.0615
3126.00,0.0612
3125.00,0.0609
3124.00,0.0606
3123.00,0.0603
3122.00,0.0599
3121.00,0.0596
3120.00,0.0593
3119.00,0.0590
3118.00,0.0587
3117.00,0.0584
3116.00,0.0581
3115.00,0.0578
3114.00,0.0576
3113.00,0.0573
3112.00,0.0570
3111.00,0.0568
3110.00,0.0565
3109.00,0.0563
3108.00,0.0561
3107.00,0.0558
3106.00,0.0555
3105.00,0.0553
3104.00,0.0550
3103.00,0.0548
3102.00,0.0546
3101.00,0.0544
3100.00,0.0542
3099.00,0.0540
3098.00,0.0538
3097.00,0.0536
3096.00,0.0533
3095.00,0.0531
3094.00,0.0528
3093.00,0.0526
3092.00,0.0524
3091.00,0.0522
3090.00,0.0520
3089.00,0.0518
3088.00,0.0516
3087.00,0.0513
3086.00,0.0511
3085.00,0.0510
3084.00,0.0508
3083.00,0.0506
3082.00,0.0504
3081.00,0.0502
3080.00,0.0501
3079.00,0.0499
3078.00,0.0497
3077.00,0.0495
3076.00,0.0493
3075.00,0.0491
3074.00,0.0489
3073.00,0.0487
3072.00,0.0485
3071.00,0.0483
3070.00,0.0481
3069.00,0.0479
3068.00,0.0477
3067.00,0.0475
3066.00,0.0473
3065.00,0.0471
3064.00,0.0469
3063.00,0.0467
3062.00,0.0465
3061.00,0.0463
3060.00,0.0460
3059.00,0.0457
3058.00,0.0455
3057.00,0.0453
3056.00,0.0451
3055.00,0.0448
3054.00,0.0446
3053.00,0.0444
3052.00,0.0441
3051.00,0.0439
3050.00,0.0437
3049.00,0.0435
3048.00,0.0432
3047.00,0.0430
3046.00,0.0427
3045.00,0.0425
3044.00,0.0423
3043.00,0.0421
3042.00,0.0419
3041.00,0.0417
3040.00,0.0414
3039.00,0.0412
3038.00,0.0410
3037.00,0.0408
3036.00,0.0406
3035.00,0.0403
3034.00,0.0401
3033.00,0.0400
3032.00,0.0398
3031.00,0.0396
3030.00,0.0394
3029.00,0.0392
3028.00,0.0391
3027.00,0.0389
3026.00,0.0387
3025.00,0.0385
3024.00,0.0383
3023.00,0.0381
3022.00,0.0379
3021.00,0.0378
3020.00,0.0376
3019.00,0.0375
3018.00,0.0374
3017.00,0.0372
3016.00,0.0371
3015.00,0.0370
3014.00,0.0368
3013.00,0.0367
3012.00,0.0366
3011.00,0.0365
3010.00,0.0364
3009.00,0.0362
3008.00,0.0361
3007.00,0.0360
3006.00,0.0358
3005.00,0.0358
3004.00,0.0357
3003.00,0.0355
3002.00,0.0354
3001.00,0.0353
3000.00,0.0353
2999.00,0.0353
2998.00,0.0352
2997.00,0.0352
2996.00,0.0351
2995.00,0.0351
2994.00,0.0351
2993.00,0.0351
2992.00,0.0352
2991.00,0.0352
2990.00,0.0353
2989.00,0.0354
2988.00,0.0355
2987.00,0.0356
2986.00,0.0357
2985.00,0.0358
2984.00,0.0359
2983.00,0.0360
2982.00,0.0361
2981.00,0.0363
2980.00,0.0364
2979.00,0.0366
2978.00,0.0367
2977.00,0.0369
2976.00,0.0371
2975.00,0.0372
2974.00,0.0374
2973.00,0.0376
2972.00,0.0377
2971.00,0.0379
2970.00,0.0381
2969.00,0.0382
2968.00,0.0384
2967.00,0.0385
2966.00,0.0386
2965.00,0.0388
2964.00,0.0389
2963.00,0.0390
2962.00,0.0391
2961.00,0.0391
2960.00,0.0391
2959.00,0.0391
2958.00,0.0391
2957.00,0.0391
2956.00,0.0390
2955.00,0.0389
2954.00,0.0388
2953.00,0.0387
2952.00,0.0386
2951.00,0.0386
2950.00,0.0385
2949.00,0.0385
2948.00,0.0385
2947.00,0.0385
2946.00,0.0385
2945.00,0.0386
2944.00,0.0386
2943.00,0.0387
2942.00,0.0388
2941.00,0.0389
2940.00,0.0391
2939.00,0.0392
2938.00,0.0394
2937.00,0.0395
2936.00,0.0396
2935.00,0.0397
2934.00,0.0397
2933.00,0.0398
2932.00,0.0398
2931.00,0.0398
2930.00,0.0399
2929.00,0.0399
2928.00,0.0399
2927.00,0.0400
2926.00,0.0400
2925.00,0.0399
2924.00,0.0399
2923.00,0.0398
2922.00,0.0396
2921.00,0.0394
2920.00,0.0392
2919.00,0.0389
2918.00,0.0386
2917.00,0.0383
2916.00,0.0380
2915.00,0.0376
2914.00,0.0373
2913.00,0.0369
2912.00,0.0366
2911.00,0.0363
2910.00,0.0360
2909.00,0.0358
2908.00,0.0355
2907.00,0.0353
2906.00,0.0350
2905.00,0.0348
2904.00,0.0346
2903.00,0.0344
2902.00,0.0342
2901.00,0.0340
2900.00,0.0338
2899.00,0.0337
2898.00,0.0335
2897.00,0.0333
2896.00,0.0330
2895.00,0.0328
2894.00,0.0326
2893.00,0.0325
2892.00,0.0323
2891.00,0.0322
2890.00,0.0320
2889.00,0.0318
2888.00,0.0316
2887.00,0.0315
2886.00,0.0313
2885.00,0.0311
2884.00,0.0310
2883.00,0.0309
2882.00,0.0308
2881.00,0.0307
2880.00,0.0306
2879.00,0.0306
2878.00,0.0305
2877.00,0.0304
2876.00,0.0302
2875.00,0.0301
2874.00,0.0300
2873.00,0.0298
2872.00,0.0297
2871.00,0.0295
2870.00,0.0293
2869.00,0.0291
2868.00,0.0289
2867.00,0.0287
2866.00,0.0285
2865.00,0.0283
2864.00,0.0281
2863.00,0.0280
2862.00,0.0279
2861.00,0.0279
2860.00,0.0278
2859.00,0.0278
2858.00,0.0278
2857.00,0.0278
2856.00,0.0277
2855.00,0.0277
2854.00,0.0277
2853.00,0.0277
2852.00,0.0276
2851.00,0.0274
2850.00,0.0272
2849.00,0.0268
2848.00,0.0264
2847.00,0.0260
2846.00,0.0256
2845.00,0.0253
2844.00,0.0249
2843.00,0.0246
2842.00,0.0243
2841.00,0.0241
2840.00,0.0238
2839.00,0.0236
2838.00,0.0234
2837.00,0.0232
2836.00,0.0231
2835.00,0.0230
2834.00,0.0228
2833.00,0.0227
2832.00,0.0226
2831.00,0.0224
2830.00,0.0223
2829.00,0.0222
2828.00,0.0220
2827.00,0.0219
2826.00,0.0219
2825.00,0.0218
2824.00,0.0217
2823.00,0.0216
2822.00,0.0215
2821.00,0.0214
2820.00,0.0213
2819.00,0.0212
2818.00,0.0211
2817.00,0.0210
2816.00,0.0210
2815.00,0.0209
2814.00,0.0208
2813.00,0.0207
2812.00,0.0206
2811.00,0.0205
2810.00,0.0204
2809.00,0.0203
2808.00,0.0202
2807.00,0.0201
2806.00,0.0200
2805.00,0.0199
2804.00,0.0199
2803.00,0.0198
2802.00,0.0198
2801.00,0.0197
2800.00,0.0196
2799.00,0.0195
2798.00,0.0194
2797.00,0.0193
2796.00,0.0193
2795.00,0.0192
2794.00,0.0191
2793.00,0.0190
2792.00,0.0190
2791.00,0.0189
2790.00,0.0189
2789.00,0.0188
2788.00,0.0188
2787.00,0.0188
2786.00,0.0187
2785.00,0.0187
2784.00,0.0186
2783.00,0.0185
2782.00,0.0185
2781.00,0.0184
2780.00,0.0183
2779.00,0.0183
2778.00,0.0182
2777.00,0.0181
2776.00,0.0181
2775.00,0.0180
2774.00,0.0179
2773.00,0.0179
2772.00,0.0178
2771.00,0.0178
2770.00,0.0177
2769.00,0.0177
2768.00,0.0176
2767.00,0.0176
2766.00,0.0175
2765.00,0.0175
2764.00,0.0174
2763.00,0.0174
2762.00,0.0173
2761.00,0.0173
2760.00,0.0172
2759.00,0.0172
2758.00,0.0172
2757.00,0.0171
2756.00,0.0171
2755.00,0.0171
2754.00,0.0170
2753.00,0.0170
2752.00,0.0169
2751.00,0.0169
2750.00,0.0168
2749.00,0.0168
2748.00,0.0167
2747.00,0.0167
2746.00,0.0166
2745.00,0.0166
2744.00,0.0165
2743.00,0.0165
2742.00,0.0165
2741.00,0.0164
2740.00,0.0164
2739.00,0.0164
2738.00,0.0163
2737.00,0.0163
2736.00,0.0163
2735.00,0.0163
2734.00,0.0162
2733.00,0.0162
2732.00,0.0162
2731.00,0.0161
2730.00,0.0161
2729.00,0.0160
2728.00,0.0160
2727.00,0.0159
2726.00,0.0158
2725.00,0.0158
2724.00,0.0158
2723.00,0.0157
2722.00,0.0157
2721.00,0.0157
2720.00,0.0156
2719.00,0.0156
2718.00,0.0156
2717.00,0.0155
2716.00,0.0155
2715.00,0.0154
2714.00,0.0154
2713.00,0.0153
2712.00,0.0153
2711.00,0.0153
2710.00,0.0152
2709.00,0.0152
2708.00,0.0152
2707.00,0.0152
2706.00,0.0152
2705.00,0.0152
2704.00,0.0152
2703.00,0.0152
2702.00,0.0151
2701.00,0.0150
2700.00,0.0150
2699.00,0.0149
2698.00,0.0149
2697.00,0.0149
2696.00,0.0148
2695.00,0.0148
2694.00,0.0147
2693.00,0.0147
2692.00,0.0147
2691.00,0.0146
2690.00,0.0146
2689.00,0.0146
2688.00,0.0146
2687.00,0.0145
2686.00,0.0145
2685.00,0.0145
2684.00,0.0145
2683.00,0.0145
2682.00,0.0145
2681.00,0.0144
2680.00,0.0144
2679.00,0.0144
2678.00,0.0144
2677.00,0.0143
2676.00,0.0143
2675.00,0.0142
2674.00,0.0142
2673.00,0.0142
2672.00,0.0142
2671.00,0.0141
2670.00,0.0141
2669.00,0.0141
2668.00,0.0141
2667.00,0.0141
2666.00,0.0141
2665.00,0.0141
2664.00,0.0141
2663.00,0.0141
2662.00,0.0141
2661.00,0.0141
2660.00,0.0142
2659.00,0.0142
2658.00,0.0142
2657.00,0.0142
2656.00,0.0142
2655.00,0.0141
2654.00,0.0141
2653.00,0.0141
2652.00,0.0140
2651.00,0.0140
2650.00,0.0140
2649.00,0.0140
2648.00,0.0140
2647.00,0.0139
2646.00,0.0139
2645.00,0.0139
2644.00,0.0138
2643.00,0.0138
2642.00,0.0138
2641.00,0.0137
2640.00,0.0137
2639.00,0.0136
2638.00,0.0135
2637.00,0.0135
2636.00,0.0134
2635.00,0.0134
2634.00,0.0134
2633.00,0.0134
2632.00,0.0133
2631.00,0.0133
2630.00,0.0132
2629.00,0.0132
2628.00,0.0131
2627.00,0.0131
2626.00,0.0131
2625.00,0.0130
2624.00,0.0130
2623.00,0.0130
2622.00,0.0130
2621.00,0.0129
2620.00,0.0129
2619.00,0.0129
2618.00,0.0128
2617.00,0.0128
2616.00,0.0128
2615.00,0.0127
2614.00,0.0127
2613.00,0.0127
2612.00,0.0127
2611.00,0.0126
2610.00,0.0125
2609.00,0.0124
2608.00,0.0124
2607.00,0.0124
2606.00,0.0124
2605.00,0.0124
2604.00,0.0124
2603.00,0.0123
2602.00,0.0123
2601.00,0.0123
2600.00,0.0123
2599.00,0.0122
2598.00,0.0122
2597.00,0.0122
2596.00,0.0121
2595.00,0.0121
2594.00,0.0121
2593.00,0.0120
2592.00,0.0120
2591.00,0.0119
2590.00,0.0118
2589.00,0.0117
2588.00,0.0117
2587.00,0.0116
2586.00,0.0116
2585.00,0.0117
2584.00,0.0117
2583.00,0.0117
2582.00,0.0117
2581.00,0.0117
2580.00,0.0117
2579.00,0.0118
2578.00,0.0118
2577.00,0.0118
2576.00,0.0118
2575.00,0.0117
2574.00,0.0116
2573.00,0.0115
2572.00,0.0114
2571.00,0.0114
2570.00,0.0114
2569.00,0.0114
2568.00,0.0114
2567.00,0.0113
2566.00,0.0113
2565.00,0.0112
2564.00,0.0112
2563.00,0.0113
2562.00,0.0113
2561.00,0.0114
2560.00,0.0114
2559.00,0.0113
2558.00,0.0113
2557.00,0.0112
2556.00,0.0111
2555.00,0.0110
2554.00,0.0110
2553.00,0.0110
2552.00,0.0111
2551.00,0.0111
2550.00,0.0111
2549.00,0.0111
2548.00,0.0110
2547.00,0.0110
2546.00,0.0110
2545.00,0.0110
2544.00,0.0110
2543.00,0.0110
2542.00,0.0110
2541.00,0.0110
2540.00,0.0110
2539.00,0.0110
2538.00,0.0109
2537.00,0.0107
2536.00,0.0107
2535.00,0.0106
2534.00,0.0107
2533.00,0.0107
2532.00,0.0108
2531.00,0.0107
2530.00,0.0107
2529.00,0.0107
2528.00,0.0107
2527.00,0.0107
2526.00,0.0108
2525.00,0.0108
2524.00,0.0108
2523.00,0.0107
2522.00,0.0106
2521.00,0.0106
2520.00,0.0105
2519.00,0.0105
2518.00,0.0105
2517.00,0.0105
2516.00,0.0106
2515.00,0.0105
2514.00,0.0105
2513.00,0.0105
2512.00,0.0105
2511.00,0.0106
2510.00,0.0106
2509.00,0.0105
2508.00,0.0105
2507.00,0.0104
2506.00,0.0104
2505.00,0.0104
2504.00,0.0104
2503.00,0.0104
2502.00,0.0104
2501.00,0.0104
2500.00,0.0103
2499.00,0.0103
2498.00,0.0104
2497.00,0.0104
2496.00,0.0104
2495.00,0.0104
2494.00,0.0104
2493.00,0.0104
2492.00,0.0104
2491.00,0.0105
2490.00,0.0105
2489.00,0.0105
2488.00,0.0105
2487.00,0.0105
2486.00,0.0104
2485.00,0.0104
2484.00,0.0104
2483.00,0.0104
2482.00,0.0104
2481.00,0.0104
2480.00,0.0104
2479.00,0.0103
2478.00,0.0102
2477.00,0.0101
2476.00,0.0101
2475.00,0.0101
2474.00,0.0102
2473.00,0.0102
2472.00,0.0102
2471.00,0.0101
2470.00,0.0101
2469.00,0.0101
2468.00,0.0101
2467.00,0.0101
2466.00,0.0101
2465.00,0.0101
2464.00,0.0101
2463.00,0.0101
2462.00,0.0101
2461.00,0.0101
2460.00,0.0101
2459.00,0.0101
2458.00,0.0101
2457.00,0.0102
2456.00,0.0102
2455.00,0.0102
2454.00,0.0102
2453.00,0.0102
2452.00,0.0102
2451.00,0.0102
2450.00,0.0103
2449.00,0.0103
2448.00,0.0102
2447.00,0.0102
2446.00,0.0101
2445.00,0.0101
2444.00,0.0101
2443.00,0.0101
2442.00,0.0101
2441.00,0.0101
2440.00,0.0101
2439.00,0.0101
2438.00,0.0100
2437.00,0.0100
2436.00,0.0100
2435.00,0.0099
2434.00,0.0099
2433.00,0.0099
2432.00,0.0099
2431.00,0.0099
2430.00,0.0099
2429.00,0.0098
2428.00,0.0098
2427.00,0.0099
2426.00,0.0099
2425.00,0.0099
2424.00,0.0099
2423.00,0.0098
2422.00,0.0098
2421.00,0.0097
2420.00,0.0097
2419.00,0.0097
2418.00,0.0097
2417.00,0.0097
2416.00,0.0097
2415.00,0.0096
2414.00,0.0096
2413.00,0.0096
2412.00,0.0096
2411.00,0.0096
2410.00,0.0097
2409.00,0.0096
2408.00,0.0096
2407.00,0.0096
2406.00,0.0096
2405.00,0.0096
2404.00,0.0096
2403.00,0.0095
2402.00,0.0095
2401.00,0.0095
2400.00,0.0096
2399.00,0.0096
2398.00,0.0096
2397.00,0.0096
2396.00,0.0096
2395.00,0.0096
2394.00,0.0097
2393.00,0.0097
2392.00,0.0096
2391.00,0.0096
2390.00,0.0096
2389.00,0.0096
2388.00,0.0096
2387.00,0.0096
2386.00,0.0096
2385.00,0.0096
2384.00,0.0096
2383.00,0.0095
2382.00,0.0095
2381.00,0.0095
2380.00,0.0095
2379.00,0.0095
2378.00,0.0094
2377.00,0.0094
2376.00,0.0094
2375.00,0.0094
2374.00,0.0095
2373.00,0.0096
2372.00,0.0096
2371.00,0.0095
2370.00,0.0094
2369.00,0.0093
2368.00,0.0093
2367.00,0.0093
2366.00,0.0093
2365.00,0.0094
2364.00,0.0096
2363.00,0.0098
2362.00,0.0099
2361.00,0.0099
2360.00,0.0099
2359.00,0.0099
2358.00,0.0098
2357.00,0.0098
2356.00,0.0099
2355.00,0.0099
2354.00,0.0100
2353.00,0.0100
2352.00,0.0100
2351.00,0.0099
2350.00,0.0098
2349.00,0.0099
2348.00,0.0101
2347.00,0.0103
2346.00,0.0105
2345.00,0.0105
2344.00,0.0104
2343.00,0.0103
2342.00,0.0103
2341.00,0.0103
2340.00,0.0104
2339.00,0.0104
2338.00,0.0104
2337.00,0.0104
2336.00,0.0103
2335.00,0.0103
2334.00,0.0102
2333.00,0.0101
2332.00,0.0101
2331.00,0.0101
2330.00,0.0101
2329.00,0.0102
2328.00,0.0103
2327.00,0.0107
2326.00,0.0111
2325.00,0.0116
2324.00,0.0118
2323.00,0.0118
2322.00,0.0116
2321.00,0.0113
2320.00,0.0111
2319.00,0.0110
2318.00,0.0109
2317.00,0.0109
2316.00,0.0109
2315.00,0.0109
2314.00,0.0108
2313.00,0.0108
2312.00,0.0108
2311.00,0.0108
2310.00,0.0108
2309.00,0.0107
2308.00,0.0107
2307.00,0.0106
2306.00,0.0106
2305.00,0.0106
2304.00,0.0107
2303.00,0.0107
2302.00,0.0108
2301.00,0.0108
2300.00,0.0108
2299.00,0.0108
2298.00,0.0109
2297.00,0.0110
2296.00,0.0112
2295.00,0.0112
2294.00,0.0113
2293.00,0.0113
2292.00,0.0113
2291.00,0.0114
2290.00,0.0115
2289.00,0.0116
2288.00,0.0116
2287.00,0.0116
2286.00,0.0116
2285.00,0.0117
2284.00,0.0117
2283.00,0.0117
2282.00,0.0116
2281.00,0.0115
2280.00,0.0115
2279.00,0.0113
2278.00,0.0112
2277.00,0.0110
2276.00,0.0109
2275.00,0.0109
2274.00,0.0109
2273.00,0.0110
2272.00,0.0112
2271.00,0.0113
2270.00,0.0113
2269.00,0.0112
2268.00,0.0111
2267.00,0.0109
2266.00,0.0108
2265.00,0.0108
2264.00,0.0108
2263.00,0.0107
2262.00,0.0107
2261.00,0.0107
2260.00,0.0107
2259.00,0.0108
2258.00,0.0108
2257.00,0.0109
2256.00,0.0110
2255.00,0.0109
2254.00,0.0109
2253.00,0.0108
2252.00,0.0106
2251.00,0.0105
2250.00,0.0105
2249.00,0.0105
2248.00,0.0106
2247.00,0.0107
2246.00,0.0108
2245.00,0.0108
2244.00,0.0108
2243.00,0.0107
2242.00,0.0107
2241.00,0.0106
2240.00,0.0106
2239.00,0.0106
2238.00,0.0105
2237.00,0.0105
2236.00,0.0105
2235.00,0.0105
2234.00,0.0105
2233.00,0.0105
2232.00,0.0106
2231.00,0.0106
2230.00,0.0106
2229.00,0.0106
2228.00,0.0106
2227.00,0.0107
2226.00,0.0107
2225.00,0.0106
2224.00,0.0105
2223.00,0.0104
2222.00,0.0103
2221.00,0.0104
2220.00,0.0105
2219.00,0.0106
2218.00,0.0105
2217.00,0.0106
2216.00,0.0106
2215.00,0.0106
2214.00,0.0106
2213.00,0.0105
2212.00,0.0104
2211.00,0.0104
2210.00,0.0103
2209.00,0.0104
2208.00,0.0104
2207.00,0.0104
2206.00,0.0103
2205.00,0.0103
2204.00,0.0103
2203.00,0.0103
2202.00,0.0104
2201.00,0.0105
2200.00,0.0106
2199.00,0.0106
2198.00,0.0105
2197.00,0.0104
2196.00,0.0102
2195.00,0.0100
2194.00,0.0100
2193.00,0.0101
2192.00,0.0103
2191.00,0.0105
2190.00,0.0108
2189.00,0.0110
2188.00,0.0111
2187.00,0.0109
2186.00,0.0107
2185.00,0.0105
2184.00,0.0104
2183.00,0.0102
2182.00,0.0100
2181.00,0.0098
2180.00,0.0097
2179.00,0.0097
2178.00,0.0098
2177.00,0.0098
2176.00,0.0098
2175.00,0.0099
2174.00,0.0099
2173.00,0.0101
2172.00,0.0103
2171.00,0.0104
2170.00,0.0104
2169.00,0.0104
2168.00,0.0104
2167.00,0.0104
2166.00,0.0103
2165.00,0.0103
2164.00,0.0103
2163.00,0.0103
2162.00,0.0104
2161.00,0.0103
2160.00,0.0095
2159.00,0.0081
2158.00,0.0068
2157.00,0.0060
2156.00,0.0059
2155.00,0.0062
2154.00,0.0065
2153.00,0.0069
2152.00,0.0072
2151.00,0.0074
2150.00,0.0076
2149.00,0.0078
2148.00,0.0080
2147.00,0.0080
2146.00,0.0079
2145.00,0.0079
2144.00,0.0079
2143.00,0.0080
2142.00,0.0080
2141.00,0.0080
2140.00,0.0081
2139.00,0.0081
2138.00,0.0081
2137.00,0.0081
2136.00,0.0080
2135.00,0.0079
2134.00,0.0078
2133.00,0.0078
2132.00,0.0080
2131.00,0.0083
2130.00,0.0087
2129.00,0.0090
2128.00,0.0094
2127.00,0.0097
2126.00,0.0099
2125.00,0.0101
2124.00,0.0102
2123.00,0.0102
2122.00,0.0101
2121.00,0.0101
2120.00,0.0100
2119.00,0.0100
2118.00,0.0101
2117.00,0.0103
2116.00,0.0106
2115.00,0.0108
2114.00,0.0109
2113.00,0.0109
2112.00,0.0109
2111.00,0.0108
2110.00,0.0108
2109.00,0.0108
2108.00,0.0107
2107.00,0.0107
2106.00,0.0107
2105.00,0.0107
2104.00,0.0107
2103.00,0.0108
2102.00,0.0108
2101.00,0.0108
2100.00,0.0109
2099.00,0.0109
2098.00,0.0108
2097.00,0.0106
2096.00,0.0104
2095.00,0.0102
2094.00,0.0101
2093.00,0.0101
2092.00,0.0102
2091.00,0.0103
2090.00,0.0103
2089.00,0.0103
2088.00,0.0102
2087.00,0.0102
2086.00,0.0103
2085.00,0.0104
2084.00,0.0106
2083.00,0.0107
2082.00,0.0106
2081.00,0.0105
2080.00,0.0105
2079.00,0.0105
2078.00,0.0105
2077.00,0.0105
2076.00,0.0104
2075.00,0.0103
2074.00,0.0103
2073.00,0.0104
2072.00,0.0105
2071.00,0.0104
2070.00,0.0102
2069.00,0.0100
2068.00,0.0099
2067.00,0.0097
2066.00,0.0096
2065.00,0.0096
2064.00,0.0097
2063.00,0.0098
2062.00,0.0098
2061.00,0.0098
2060.00,0.0097
2059.00,0.0096
2058.00,0.0096
2057.00,0.0095
2056.00,0.0094
2055.00,0.0091
2054.00,0.0090
2053.00,0.0090
2052.00,0.0093
2051.00,0.0096
2050.00,0.0096
2049.00,0.0093
2048.00,0.0089
2047.00,0.0086
2046.00,0.0085
2045.00,0.0085
2044.00,0.0085
2043.00,0.0085
2042.00,0.0086
2041.00,0.0088
2040.00,0.0090
2039.00,0.0091
2038.00,0.0091
2037.00,0.0090
2036.00,0.0090
2035.00,0.0088
2034.00,0.0086
2033.00,0.0083
2032.00,0.0081
2031.00,0.0081
2030.00,0.0080
2029.00,0.0077
2028.00,0.0074
2027.00,0.0070
2026.00,0.0067
2025.00,0.0066
2024.00,0.0068
2023.00,0.0071
2022.00,0.0075
2021.00,0.0078
2020.00,0.0081
2019.00,0.0080
2018.00,0.0077
2017.00,0.0074
2016.00,0.0073
2015.00,0.0074
2014.00,0.0075
2013.00,0.0076
2012.00,0.0076
2011.00,0.0074
2010.00,0.0074
2009.00,0.0074
2008.00,0.0074
2007.00,0.0071
2006.00,0.0067
2005.00,0.0065
2004.00,0.0065
2003.00,0.0067
2002.00,0.0069
2001.00,0.0071
2000.00,0.0073
1999.00,0.0075
1998.00,0.0076
1997.00,0.0078
1996.00,0.0080
1995.00,0.0081
1994.00,0.0083
1993.00,0.0084
1992.00,0.0085
1991.00,0.0085
1990.00,0.0084
1989.00,0.0083
1988.00,0.0082
1987.00,0.0081
1986.00,0.0081
1985.00,0.0084
1984.00,0.0087
1983.00,0.0090
1982.00,0.0091
1981.00,0.0092
1980.00,0.0090
1979.00,0.0086
1978.00,0.0080
1977.00,0.0075
1976.00,0.0071
1975.00,0.0070
1974.00,0.0069
1973.00,0.0068
1972.00,0.0068
1971.00,0.0070
1970.00,0.0071
1969.00,0.0072
1968.00,0.0072
1967.00,0.0072
1966.00,0.0071
1965.00,0.0071
1964.00,0.0071
1963.00,0.0069
1962.00,0.0068
1961.00,0.0067
1960.00,0.0067
1959.00,0.0067
1958.00,0.0067
1957.00,0.0068
1956.00,0.0070
1955.00,0.0073
1954.00,0.0073
1953.00,0.0072
1952.00,0.0072
1951.00,0.0071
1950.00,0.0071
1949.00,0.0072
1948.00,0.0072
1947.00,0.0071
1946.00,0.0071
1945.00,0.0071
1944.00,0.0071
1943.00,0.0070
1942.00,0.0070
1941.00,0.0070
1940.00,0.0071
1939.00,0.0072
1938.00,0.0072
1937.00,0.0072
1936.00,0.0072
1935.00,0.0073
1934.00,0.0073
1933.00,0.0073
1932.00,0.0073
1931.00,0.0072
1930.00,0.0072
1929.00,0.0073
1928.00,0.0073
1927.00,0.0073
1926.00,0.0072
1925.00,0.0071
1924.00,0.0071
1923.00,0.0072
1922.00,0.0074
1921.00,0.0076
1920.00,0.0078
1919.00,0.0078
1918.00,0.0077
1917.00,0.0077
1916.00,0.0077
1915.00,0.0077
1914.00,0.0077
1913.00,0.0077
1912.00,0.0077
1911.00,0.0076
1910.00,0.0076
1909.00,0.0075
1908.00,0.0074
1907.00,0.0074
1906.00,0.0074
1905.00,0.0074
1904.00,0.0074
1903.00,0.0074
1902.00,0.0074
1901.00,0.0074
1900.00,0.0075
1899.00,0.0075
1898.00,0.0076
1897.00,0.0076
1896.00,0.0076
1895.00,0.0076
1894.00,0.0075
1893.00,0.0074
1892.00,0.0072
1891.00,0.0071
1890.00,0.0070
1889.00,0.0069
1888.00,0.0070
1887.00,0.0071
1886.00,0.0072
1885.00,0.0072
1884.00,0.0072
1883.00,0.0072
1882.00,0.0072
1881.00,0.0072
1880.00,0.0072
1879.00,0.0072
1878.00,0.0071
1877.00,0.0071
1876.00,0.0071
1875.00,0.0071
1874.00,0.0071
1873.00,0.0072
1872.00,0.0072
1871.00,0.0072
1870.00,0.0071
1869.00,0.0070
1868.00,0.0070
1867.00,0.0070
1866.00,0.0071
1865.00,0.0071
1864.00,0.0071
1863.00,0.0071
1862.00,0.0070
1861.00,0.0070
1860.00,0.0070
1859.00,0.0070
1858.00,0.0071
1857.00,0.0070
1856.00,0.0070
1855.00,0.0070
1854.00,0.0069
1853.00,0.0069
1852.00,0.0070
1851.00,0.0070
1850.00,0.0069
1849.00,0.0068
1848.00,0.0068
1847.00,0.0069
1846.00,0.0070
1845.00,0.0071
1844.00,0.0071
1843.00,0.0070
1842.00,0.0069
1841.00,0.0069
1840.00,0.0070
1839.00,0.0070
1838.00,0.0069
1837.00,0.0069
1836.00,0.0069
1835.00,0.0069
1834.00,0.0069
1833.00,0.0069
1832.00,0.0070
1831.00,0.0070
1830.00,0.0069
1829.00,0.0069
1828.00,0.0069
1827.00,0.0069
1826.00,0.0069
1825.00,0.0069
1824.00,0.0069
1823.00,0.0070
1822.00,0.0070
1821.00,0.0071
1820.00,0.0071
1819.00,0.0070
1818.00,0.0068
1817.00,0.0067
1816.00,0.0067
1815.00,0.0067
1814.00,0.0068
1813.00,0.0069
1812.00,0.0069
1811.00,0.0069
1810.00,0.0070
1809.00,0.0070
1808.00,0.0070
1807.00,0.0070
1806.00,0.0069
1805.00,0.0069
1804.00,0.0069
1803.00,0.0068
1802.00,0.0068
1801.00,0.0068
1800.00,0.0069
1799.00,0.0069
1798.00,0.0069
1797.00,0.0069
1796.00,0.0069
1795.00,0.0070
1794.00,0.0070
1793.00,0.0071
1792.00,0.0070
1791.00,0.0069
1790.00,0.0069
1789.00,0.0069
1788.00,0.0070
1787.00,0.0070
1786.00,0.0069
1785.00,0.0069
1784.00,0.0068
1783.00,0.0068
1782.00,0.0068
1781.00,0.0068
1780.00,0.0068
1779.00,0.0068
1778.00,0.0068
1777.00,0.0068
1776.00,0.0068
1775.00,0.0068
1774.00,0.0069
1773.00,0.0070
1772.00,0.0071
1771.00,0.0071
1770.00,0.0070
1769.00,0.0070
1768.00,0.0069
1767.00,0.0069
1766.00,0.0068
1765.00,0.0068
1764.00,0.0068
1763.00,0.0068
1762.00,0.0068
1761.00,0.0068
1760.00,0.0070
1759.00,0.0071
1758.00,0.0072
1757.00,0.0073
1756.00,0.0074
1755.00,0.0076
1754.00,0.0079
1753.00,0.0081
1752.00,0.0083
1751.00,0.0085
1750.00,0.0086
1749.00,0.0087
1748.00,0.0090
1747.00,0.0092
1746.00,0.0094
1745.00,0.0095
1744.00,0.0097
1743.00,0.0099
1742.00,0.0101
1741.00,0.0104
1740.00,0.0107
1739.00,0.0108
1738.00,0.0109
1737.00,0.0110
1736.00,0.0114
1735.00,0.0116
1734.00,0.0116
1733.00,0.0116
1732.00,0.0116
1731.00,0.0116
1730.00,0.0116
1729.00,0.0117
1728.00,0.0119
1727.00,0.0121
1726.00,0.0122
1725.00,0.0123
1724.00,0.0125
1723.00,0.0126
1722.00,0.0128
1721.00,0.0130
1720.00,0.0133
1719.00,0.0136
1718.00,0.0139
1717.00,0.0141
1716.00,0.0145
1715.00,0.0147
1714.00,0.0149
1713.00,0.0152
1712.00,0.0155
1711.00,0.0158
1710.00,0.0161
1709.00,0.0165
1708.00,0.0171
1707.00,0.0176
1706.00,0.0181
1705.00,0.0187
1704.00,0.0194
1703.00,0.0202
1702.00,0.0211
1701.00,0.0224
1700.00,0.0238
1699.00,0.0249
1698.00,0.0259
1697.00,0.0270
1696.00,0.0283
1695.00,0.0298
1694.00,0.0311
1693.00,0.0322
1692.00,0.0333
1691.00,0.0345
1690.00,0.0359
1689.00,0.0373
1688.00,0.0388
1687.00,0.0402
1686.00,0.0417
1685.00,0.0435
1684.00,0.0456
1683.00,0.0477
1682.00,0.0492
1681.00,0.0505
1680.00,0.0518
1679.00,0.0533
1678.00,0.0547
1677.00,0.0562
1676.00,0.0580
1675.00,0.0599
1674.00,0.0617
1673.00,0.0633
1672.00,0.0647
1671.00,0.0663
1670.00,0.0680
1669.00,0.0700
1668.00,0.0720
1667.00,0.0737
1666.00,0.0752
1665.00,0.0766
1664.00,0.0782
1663.00,0.0801
1662.00,0.0821
1661.00,0.0841
1660.00,0.0859
1659.00,0.0875
1658.00,0.0889
1657.00,0.0901
1656.00,0.0911
1655.00,0.0922
1654.00,0.0936
1653.00,0.0958
1652.00,0.0981
1651.00,0.0994
1650.00,0.0998
1649.00,0.1000
1648.00,0.1003
1647.00,0.1009
1646.00,0.1018
1645.00,0.1026
1644.00,0.1030
1643.00,0.1032
1642.00,0.1032
1641.00,0.1032
1640.00,0.1031
1639.00,0.1031
1638.00,0.1030
1637.00,0.1028
1636.00,0.1026
1635.00,0.1025
1634.00,0.1022
1633.00,0.1016
1632.00,0.1007
1631.00,0.0998
1630.00,0.0987
1629.00,0.0975
1628.00,0.0963
1627.00,0.0951
1626.00,0.0939
1625.00,0.0926
1624.00,0.0910
1623.00,0.0894
1622.00,0.0878
1621.00,0.0864
1620.00,0.0850
1619.00,0.0837
1618.00,0.0821
1617.00,0.0803
1616.00,0.0785
1615.00,0.0768
1614.00,0.0752
1613.00,0.0736
1612.00,0.0719
1611.00,0.0702
1610.00,0.0685
1609.00,0.0668
1608.00,0.0652
1607.00,0.0637
1606.00,0.0622
1605.00,0.0609
1604.00,0.0595
1603.00,0.0581
1602.00,0.0569
1601.00,0.0556
1600.00,0.0544
1599.00,0.0532
1598.00,0.0521
1597.00,0.0510
1596.00,0.0499
1595.00,0.0489
1594.00,0.0480
1593.00,0.0471
1592.00,0.0462
1591.00,0.0454
1590.00,0.0446
1589.00,0.0439
1588.00,0.0433
1587.00,0.0428
1586.00,0.0423
1585.00,0.0419
1584.00,0.0415
1583.00,0.0412
1582.00,0.0409
1581.00,0.0407
1580.00,0.0405
1579.00,0.0404
1578.00,0.0404
1577.00,0.0404
1576.00,0.0404
1575.00,0.0405
1574.00,0.0405
1573.00,0.0404
1572.00,0.0404
1571.00,0.0405
1570.00,0.0406
1569.00,0.0409
1568.00,0.0413
1567.00,0.0416
1566.00,0.0419
1565.00,0.0421
1564.00,0.0424
1563.00,0.0427
1562.00,0.0432
1561.00,0.0437
1560.00,0.0442
1559.00,0.0452
1558.00,0.0464
1557.00,0.0473
1556.00,0.0477
1555.00,0.0480
1554.00,0.0484
1553.00,0.0488
1552.00,0.0491
1551.00,0.0493
1550.00,0.0496
1549.00,0.0499
1548.00,0.0503
1547.00,0.0504
1546.00,0.0504
1545.00,0.0503
1544.00,0.0501
1543.00,0.0500
1542.00,0.0500
1541.00,0.0498
1540.00,0.0495
1539.00,0.0490
1538.00,0.0485
1537.00,0.0479
1536.00,0.0472
1535.00,0.0465
1534.00,0.0456
1533.00,0.0447
1532.00,0.0440
1531.00,0.0434
1530.00,0.0428
1529.00,0.0421
1528.00,0.0412
1527.00,0.0403
1526.00,0.0396
1525.00,0.0390
1524.00,0.0384
1523.00,0.0378
1522.00,0.0372
1521.00,0.0364
1520.00,0.0358
1519.00,0.0352
1518.00,0.0344
1517.00,0.0335
1516.00,0.0325
1515.00,0.0317
1514.00,0.0309
1513.00,0.0299
1512.00,0.0288
1511.00,0.0277
1510.00,0.0266
1509.00,0.0256
1508.00,0.0247
1507.00,0.0237
1506.00,0.0230
1505.00,0.0223
1504.00,0.0214
1503.00,0.0205
1502.00,0.0196
1501.00,0.0188
1500.00,0.0181
1499.00,0.0175
1498.00,0.0169
1497.00,0.0163
1496.00,0.0157
1495.00,0.0152
1494.00,0.0148
1493.00,0.0144
1492.00,0.0140
1491.00,0.0135
1490.00,0.0130
1489.00,0.0126
1488.00,0.0124
1487.00,0.0123
1486.00,0.0122
1485.00,0.0122
1484.00,0.0122
1483.00,0.0123
1482.00,0.0123
1481.00,0.0125
1480.00,0.0127
1479.00,0.0130
1478.00,0.0133
1477.00,0.0136
1476.00,0.0140
1475.00,0.0145
1474.00,0.0151
1473.00,0.0158
1472.00,0.0165
1471.00,0.0171
1470.00,0.0175
1469.00,0.0178
1468.00,0.0181
1467.00,0.0183
1466.00,0.0185
1465.00,0.0188
1464.00,0.0192
1463.00,0.0195
1462.00,0.0198
1461.00,0.0200
1460.00,0.0202
1459.00,0.0204
1458.00,0.0208
1457.00,0.0214
1456.00,0.0220
1455.00,0.0222
1454.00,0.0223
1453.00,0.0222
1452.00,0.0221
1451.00,0.0221
1450.00,0.0221
1449.00,0.0221
1448.00,0.0220
1447.00,0.0221
1446.00,0.0221
1445.00,0.0221
1444.00,0.0220
1443.00,0.0220
1442.00,0.0220
1441.00,0.0220
1440.00,0.0221
1439.00,0.0221
1438.00,0.0221
1437.00,0.0222
1436.00,0.0224
1435.00,0.0225
1434.00,0.0226
1433.00,0.0227
1432.00,0.0228
1431.00,0.0229
1430.00,0.0231
1429.00,0.0234
1428.00,0.0237
1427.00,0.0240
1426.00,0.0241
1425.00,0.0242
1424.00,0.0244
1423.00,0.0247
1422.00,0.0249
1421.00,0.0251
1420.00,0.0252
1419.00,0.0253
1418.00,0.0255
1417.00,0.0257
1416.00,0.0259
1415.00,0.0259
1414.00,0.0258
1413.00,0.0257
1412.00,0.0256
1411.00,0.0254
1410.00,0.0252
1409.00,0.0250
1408.00,0.0248
1407.00,0.0245
1406.00,0.0242
1405.00,0.0239
1404.00,0.0237
1403.00,0.0234
1402.00,0.0231
1401.00,0.0227
1400.00,0.0222
1399.00,0.0217
1398.00,0.0213
1397.00,0.0209
1396.00,0.0204
1395.00,0.0200
1394.00,0.0197
1393.00,0.0195
1392.00,0.0193
1391.00,0.0190
1390.00,0.0188
1389.00,0.0186
1388.00,0.0185
1387.00,0.0184
1386.00,0.0185
1385.00,0.0186
1384.00,0.0187
1383.00,0.0188
1382.00,0.0189
1381.00,0.0190
1380.00,0.0190
1379.00,0.0190
1378.00,0.0190
1377.00,0.0189
1376.00,0.0187
1375.00,0.0185
1374.00,0.0182
1373.00,0.0181
1372.00,0.0179
1371.00,0.0178
1370.00,0.0175
1369.00,0.0171
1368.00,0.0168
1367.00,0.0164
1366.00,0.0161
1365.00,0.0156
1364.00,0.0152
1363.00,0.0147
1362.00,0.0144
1361.00,0.0143
1360.00,0.0143
1359.00,0.0142
1358.00,0.0140
1357.00,0.0139
1356.00,0.0136
1355.00,0.0135
1354.00,0.0133
1353.00,0.0131
1352.00,0.0129
1351.00,0.0126
1350.00,0.0123
1349.00,0.0120
1348.00,0.0117
1347.00,0.0114
1346.00,0.0111
1345.00,0.0108
1344.00,0.0104
1343.00,0.0101
1342.00,0.0097
1341.00,0.0093
1340.00,0.0089
1339.00,0.0086
1338.00,0.0085
1337.00,0.0083
1336.00,0.0082
1335.00,0.0080
1334.00,0.0078
1333.00,0.0075
1332.00,0.0073
1331.00,0.0071
1330.00,0.0070
1329.00,0.0069
1328.00,0.0069
1327.00,0.0069
1326.00,0.0069
1325.00,0.0069
1324.00,0.0069
1323.00,0.0069
1322.00,0.0069
1321.00,0.0069
1320.00,0.0070
1319.00,0.0070
1318.00,0.0071
1317.00,0.0072
1316.00,0.0072
1315.00,0.0072
1314.00,0.0072
1313.00,0.0072
1312.00,0.0072
1311.00,0.0073
1310.00,0.0073
1309.00,0.0073
1308.00,0.0073
1307.00,0.0074
1306.00,0.0075
1305.00,0.0076
1304.00,0.0078
1303.00,0.0080
1302.00,0.0083
1301.00,0.0086
1300.00,0.0089
1299.00,0.0094
1298.00,0.0099
1297.00,0.0105
1296.00,0.0111
1295.00,0.0118
1294.00,0.0125
1293.00,0.0132
1292.00,0.0141
1291.00,0.0150
1290.00,0.0161
1289.00,0.0172
1288.00,0.0184
1287.00,0.0196
1286.00,0.0210
1285.00,0.0224
1284.00,0.0239
1283.00,0.0254
1282.00,0.0269
1281.00,0.0286
1280.00,0.0303
1279.00,0.0320
1278.00,0.0338
1277.00,0.0356
1276.00,0.0374
1275.00,0.0392
1274.00,0.0410
1273.00,0.0428
1272.00,0.0447
1271.00,0.0466
1270.00,0.0484
1269.00,0.0502
1268.00,0.0520
1267.00,0.0537
1266.00,0.0553
1265.00,0.0569
1264.00,0.0584
1263.00,0.0599
1262.00,0.0613
1261.00,0.0627
1260.00,0.0640
1259.00,0.0652
1258.00,0.0665
1257.00,0.0676
1256.00,0.0687
1255.00,0.0697
1254.00,0.0706
1253.00,0.0715
1252.00,0.0724
1251.00,0.0732
1250.00,0.0739
1249.00,0.0746
1248.00,0.0753
1247.00,0.0760
1246.00,0.0766
1245.00,0.0772
1244.00,0.0779
1243.00,0.0785
1242.00,0.0792
1241.00,0.0799
1240.00,0.0807
1239.00,0.0815
1238.00,0.0823
1237.00,0.0832
1236.00,0.0840
1235.00,0.0849
1234.00,0.0857
1233.00,0.0866
1232.00,0.0874
1231.00,0.0881
1230.00,0.0888
1229.00,0.0894
1228.00,0.0901
1227.00,0.0906
1226.00,0.0911
1225.00,0.0916
1224.00,0.0920
1223.00,0.0924
1222.00,0.0926
1221.00,0.0927
1220.00,0.0927
1219.00,0.0926
1218.00,0.0923
1217.00,0.0920
1216.00,0.0915
1215.00,0.0909
1214.00,0.0901
1213.00,0.0892
1212.00,0.0882
1211.00,0.0870
1210.00,0.0857
1209.00,0.0843
1208.00,0.0829
1207.00,0.0814
1206.00,0.0799
1205.00,0.0783
1204.00,0.0767
1203.00,0.0751
1202.00,0.0736
1201.00,0.0722
1200.00,0.0709
1199.00,0.0697
1198.00,0.0687
1197.00,0.0677
1196.00,0.0668
1195.00,0.0659
1194.00,0.0652
1193.00,0.0644
1192.00,0.0637
1191.00,0.0628
1190.00,0.0618
1189.00,0.0607
1188.00,0.0596
1187.00,0.0585
1186.00,0.0574
1185.00,0.0564
1184.00,0.0556
1183.00,0.0549
1182.00,0.0543
1181.00,0.0539
1180.00,0.0537
1179.00,0.0536
1178.00,0.0537
1177.00,0.0539
1176.00,0.0542
1175.00,0.0547
1174.00,0.0553
1173.00,0.0560
1172.00,0.0569
1171.00,0.0580
1170.00,0.0591
1169.00,0.0605
1168.00,0.0620
1167.00,0.0635
1166.00,0.0651
1165.00,0.0668
1164.00,0.0684
1163.00,0.0701
1162.00,0.0717
1161.00,0.0732
1160.00,0.0746
1159.00,0.0758
1158.00,0.0768
1157.00,0.0778
1156.00,0.0786
1155.00,0.0793
1154.00,0.0798
1153.00,0.0801
1152.00,0.0802
1151.00,0.0801
1150.00,0.0798
1149.00,0.0793
1148.00,0.0786
1147.00,0.0777
1146.00,0.0767
1145.00,0.0756
1144.00,0.0744
1143.00,0.0732
1142.00,0.0721
1141.00,0.0710
1140.00,0.0701
1139.00,0.0693
1138.00,0.0687
1137.00,0.0684
1136.00,0.0682
1135.00,0.0682
1134.00,0.0684
1133.00,0.0688
1132.00,0.0694
1131.00,0.0701
1130.00,0.0710
1129.00,0.0719
1128.00,0.0727
1127.00,0.0734
1126.00,0.0738
1125.00,0.0740
1124.00,0.0739
1123.00,0.0735
1122.00,0.0729
1121.00,0.0722
1120.00,0.0714
1119.00,0.0707
1118.00,0.0700
1117.00,0.0695
1116.00,0.0690
1115.00,0.0687
1114.00,0.0684
1113.00,0.0682
1112.00,0.0681
1111.00,0.0682
1110.00,0.0684
1109.00,0.0689
1108.00,0.0695
1107.00,0.0703
1106.00,0.0712
1105.00,0.0723
1104.00,0.0735
1103.00,0.0749
1102.00,0.0764
1101.00,0.0781
1100.00,0.0798
1099.00,0.0816
1098.00,0.0833
1097.00,0.0850
1096.00,0.0867
1095.00,0.0883
1094.00,0.0899
1093.00,0.0915
1092.00,0.0932
1091.00,0.0949
1090.00,0.0967
1089.00,0.0985
1088.00,0.1004
1087.00,0.1024
1086.00,0.1045
1085.00,0.1067
1084.00,0.1090
1083.00,0.1114
1082.00,0.1138
1081.00,0.1163
1080.00,0.1188
1079.00,0.1214
1078.00,0.1239
1077.00,0.1263
1076.00,0.1286
1075.00,0.1307
1074.00,0.1325
1073.00,0.1341
1072.00,0.1355
1071.00,0.1367
1070.00,0.1377
1069.00,0.1386
1068.00,0.1393
1067.00,0.1397
1066.00,0.1397
1065.00,0.1395
1064.00,0.1391
1063.00,0.1386
1062.00,0.1379
1061.00,0.1372
1060.00,0.1365
1059.00,0.1359
1058.00,0.1354
1057.00,0.1351
1056.00,0.1350
1055.00,0.1351
1054.00,0.1355
1053.00,0.1361
1052.00,0.1370
1051.00,0.1380
1050.00,0.1392
1049.00,0.1405
1048.00,0.1421
1047.00,0.1438
1046.00,0.1455
1045.00,0.1474
1044.00,0.1492
1043.00,0.1508
1042.00,0.1522
1041.00,0.1534
1040.00,0.1543
1039.00,0.1548
1038.00,0.1552
1037.00,0.1553
1036.00,0.1554
1035.00,0.1554
1034.00,0.1553
1033.00,0.1553
1032.00,0.1554
1031.00,0.1554
1030.00,0.1553
1029.00,0.1551
1028.00,0.1546
1027.00,0.1539
1026.00,0.1529
1025.00,0.1517
1024.00,0.1502
1023.00,0.1485
1022.00,0.1465
1021.00,0.1442
1020.00,0.1419
1019.00,0.1394
1018.00,0.1369
1017.00,0.1344
1016.00,0.1320
1015.00,0.1295
1014.00,0.1271
1013.00,0.1249
1012.00,0.1229
1011.00,0.1211
1010.00,0.1195
1009.00,0.1180
1008.00,0.1165
1007.00,0.1150
1006.00,0.1135
1005.00,0.1118
1004.00,0.1099
1003.00,0.1078
1002.00,0.1055
1001.00,0.1028
1000.00,0.1000
999.00,0.0969
998.00,0.0938
997.00,0.0907
996.00,0.0879
995.00,0.0851
994.00,0.0826
993.00,0.0803
992.00,0.0781
991.00,0.0758
990.00,0.0737
989.00,0.0715
988.00,0.0694
987.00,0.0673
986.00,0.0652
985.00,0.0633
984.00,0.0614
983.00,0.0596
982.00,0.0580
981.00,0.0566
980.00,0.0554
979.00,0.0543
978.00,0.0534
977.00,0.0526
976.00,0.0519
975.00,0.0511
974.00,0.0503
973.00,0.0494
972.00,0.0483
971.00,0.0471
970.00,0.0458
969.00,0.0443
968.00,0.0425
967.00,0.0405
966.00,0.0382
965.00,0.0357
964.00,0.0331
963.00,0.0305
962.00,0.0281
961.00,0.0257
960.00,0.0236
959.00,0.0216
958.00,0.0199
957.00,0.0185
956.00,0.0173
955.00,0.0163
954.00,0.0155
953.00,0.0148
952.00,0.0144
951.00,0.0142
950.00,0.0143
949.00,0.0145
948.00,0.0148
947.00,0.0153
946.00,0.0160
945.00,0.0170
944.00,0.0182
943.00,0.0198
942.00,0.0218
941.00,0.0240
940.00,0.0264
939.00,0.0290
938.00,0.0317
937.00,0.0345
936.00,0.0371
935.00,0.0396
934.00,0.0418
933.00,0.0436
932.00,0.0449
931.00,0.0460
930.00,0.0467
929.00,0.0471
928.00,0.0471
927.00,0.0467
926.00,0.0460
925.00,0.0450
924.00,0.0439
923.00,0.0427
922.00,0.0415
921.00,0.0401
920.00,0.0387
919.00,0.0373
918.00,0.0358
917.00,0.0343
916.00,0.0329
915.00,0.0314
914.00,0.0300
913.00,0.0285
912.00,0.0270
911.00,0.0256
910.00,0.0243
909.00,0.0232
908.00,0.0222
907.00,0.0213
906.00,0.0205
905.00,0.0198
904.00,0.0192
903.00,0.0187
902.00,0.0183
901.00,0.0180
900.00,0.0177
899.00,0.0174
898.00,0.0172
897.00,0.0171
896.00,0.0170
895.00,0.0170
894.00,0.0171
893.00,0.0172
892.00,0.0171
891.00,0.0170
890.00,0.0168
889.00,0.0165
888.00,0.0161
887.00,0.0155
886.00,0.0147
885.00,0.0138
884.00,0.0127
883.00,0.0115
882.00,0.0103
881.00,0.0092
880.00,0.0082
879.00,0.0074
878.00,0.0068
877.00,0.0065
876.00,0.0063
875.00,0.0064
874.00,0.0065
873.00,0.0068
872.00,0.0069
871.00,0.0069
870.00,0.0068
869.00,0.0067
868.00,0.0067
867.00,0.0067
866.00,0.0069
865.00,0.0071
864.00,0.0074
863.00,0.0078
862.00,0.0086
861.00,0.0096
860.00,0.0107
859.00,0.0119
858.00,0.0133
857.00,0.0148
856.00,0.0164
855.00,0.0181
854.00,0.0198
853.00,0.0216
852.00,0.0234
851.00,0.0251
850.00,0.0267
849.00,0.0282
848.00,0.0293
847.00,0.0301
846.00,0.0306
845.00,0.0306
844.00,0.0303
843.00,0.0296
842.00,0.0287
841.00,0.0278
840.00,0.0267
839.00,0.0256
838.00,0.0244
837.00,0.0231
836.00,0.0220
835.00,0.0210
834.00,0.0200
833.00,0.0190
832.00,0.0181
831.00,0.0171
830.00,0.0162
829.00,0.0154
828.00,0.0146
827.00,0.0138
826.00,0.0131
825.00,0.0125
824.00,0.0120
823.00,0.0116
822.00,0.0112
821.00,0.0107
820.00,0.0103
819.00,0.0100
818.00,0.0098
817.00,0.0097
816.00,0.0096
815.00,0.0096
814.00,0.0095
813.00,0.0095
812.00,0.0096
811.00,0.0097
810.00,0.0100
809.00,0.0103
808.00,0.0104
807.00,0.0105
806.00,0.0106
805.00,0.0106
804.00,0.0106
803.00,0.0104
802.00,0.0102
801.00,0.0099
800.00,0.0096
799.00,0.0093
798.00,0.0090
797.00,0.0088
796.00,0.0085
795.00,0.0081
794.00,0.0077
793.00,0.0074
792.00,0.0072
791.00,0.0071
790.00,0.0070
789.00,0.0069
788.00,0.0068
787.00,0.0067
786.00,0.0066
785.00,0.0066
784.00,0.0065
783.00,0.0066
782.00,0.0069
781.00,0.0072
780.00,0.0077
779.00,0.0082
778.00,0.0087
777.00,0.0092
776.00,0.0096
775.00,0.0098
774.00,0.0101
773.00,0.0102
772.00,0.0103
771.00,0.0102
770.00,0.0099
769.00,0.0096
768.00,0.0091
767.00,0.0086
766.00,0.0082
765.00,0.0077
764.00,0.0072
763.00,0.0068
762.00,0.0066
761.00,0.0065
760.00,0.0064
759.00,0.0064
758.00,0.0065
757.00,0.0067
756.00,0.0070
755.00,0.0073
754.00,0.0077
753.00,0.0083
752.00,0.0091
751.00,0.0099
750.00,0.0109
749.00,0.0119
748.00,0.0130
747.00,0.0141
746.00,0.0151
745.00,0.0159
744.00,0.0166
743.00,0.0172
742.00,0.0178
741.00,0.0183
740.00,0.0187
739.00,0.0189
738.00,0.0192
737.00,0.0193
736.00,0.0194
735.00,0.0194
734.00,0.0194
733.00,0.0193
732.00,0.0191
731.00,0.0190
730.00,0.0188
729.00,0.0187
728.00,0.0186
727.00,0.0186
726.00,0.0186
725.00,0.0186
724.00,0.0186
723.00,0.0184
722.00,0.0182
721.00,0.0179
720.00,0.0175
719.00,0.0172
718.00,0.0170
717.00,0.0169
716.00,0.0168
715.00,0.0169
714.00,0.0170
713.00,0.0173
712.00,0.0177
711.00,0.0182
710.00,0.0190
709.00,0.0198
708.00,0.0206
707.00,0.0214
706.00,0.0223
705.00,0.0231
704.00,0.0237
703.00,0.0242
702.00,0.0246
701.00,0.0249
700.00,0.0251
699.00,0.0249
698.00,0.0245
697.00,0.0239
696.00,0.0230
695.00,0.0221
694.00,0.0213
693.00,0.0203
692.00,0.0192
691.00,0.0180
690.00,0.0170
689.00,0.0161
688.00,0.0152
687.00,0.0143
686.00,0.0135
685.00,0.0128
684.00,0.0120
683.00,0.0114
682.00,0.0109
681.00,0.0105
680.00,0.0103
679.00,0.0101
678.00,0.0099
677.00,0.0099
676.00,0.0099
675.00,0.0101
674.00,0.0103
673.00,0.0105
672.00,0.0104
671.00,0.0101
670.00,0.0095
669.00,0.0089
668.00,0.0089
667.00,0.0095
666.00,0.0103
665.00,0.0107
664.00,0.0108
663.00,0.0110
662.00,0.0115
661.00,0.0120
660.00,0.0124
659.00,0.0126
658.00,0.0127
657.00,0.0126
656.00,0.0123
655.00,0.0118
654.00,0.0113
653.00,0.0107
652.00,0.0101
651.00,0.0096
650.00,0.0091
649.00,0.0089
648.00,0.0087
647.00,0.0085
646.00,0.0084
645.00,0.0082
644.00,0.0080
643.00,0.0078
642.00,0.0076
641.00,0.0073
640.00,0.0070
639.00,0.0066
638.00,0.0063
637.00,0.0061
636.00,0.0061
635.00,0.0063
634.00,0.0069
633.00,0.0075
632.00,0.0081
631.00,0.0087
630.00,0.0094
629.00,0.0102
628.00,0.0111
627.00,0.0121
626.00,0.0131
625.00,0.0142
624.00,0.0153
623.00,0.0163
622.00,0.0173
621.00,0.0183
620.00,0.0193
619.00,0.0204
618.00,0.0215
617.00,0.0226
616.00,0.0236
615.00,0.0244
614.00,0.0250
613.00,0.0255
612.00,0.0260
611.00,0.0264
610.00,0.0270
609.00,0.0277
608.00,0.0283
607.00,0.0287
606.00,0.0290
605.00,0.0293
604.00,0.0295
603.00,0.0297
602.00,0.0300
601.00,0.0303
600.00,0.0306
599.00,0.0308
598.00,0.0307
597.00,0.0305
596.00,0.0302
595.00,0.0300
594.00,0.0298
593.00,0.0297
592.00,0.0296
591.00,0.0295
590.00,0.0296
589.00,0.0299
588.00,0.0304
587.00,0.0310
586.00,0.0318
585.00,0.0328
584.00,0.0336
583.00,0.0343
582.00,0.0348
581.00,0.0351
580.00,0.0355
579.00,0.0359
578.00,0.0362
577.00,0.0364
576.00,0.0362
575.00,0.0356
574.00,0.0347
573.00,0.0340
572.00,0.0333
571.00,0.0327
570.00,0.0320
569.00,0.0310
568.00,0.0301
567.00,0.0292
566.00,0.0283
565.00,0.0276
564.00,0.0269
563.00,0.0264
562.00,0.0260
561.00,0.0257
560.00,0.0253
559.00,0.0249
558.00,0.0244
557.00,0.0239
556.00,0.0236
555.00,0.0234
554.00,0.0231
553.00,0.0226
552.00,0.0222
551.00,0.0221
550.00,0.0223
549.00,0.0225
548.00,0.0226
547.00,0.0225
546.00,0.0225
545.00,0.0225
544.00,0.0224
543.00,0.0222
542.00,0.0221
541.00,0.0220
540.00,0.0220
539.00,0.0222
538.00,0.0223
537.00,0.0223
536.00,0.0221
535.00,0.0218
534.00,0.0213
533.00,0.0206
532.00,0.0200
531.00,0.0196
530.00,0.0193
529.00,0.0190
528.00,0.0187
527.00,0.0185
526.00,0.0186
525.00,0.0187
524.00,0.0188
523.00,0.0187
522.00,0.0184
521.00,0.0179
520.00,0.0174
519.00,0.0170
518.00,0.0169
517.00,0.0168
516.00,0.0166
515.00,0.0164
514.00,0.0162
513.00,0.0157
512.00,0.0149
511.00,0.0137
510.00,0.0124
509.00,0.0112
508.00,0.0102
507.00,0.0097
506.00,0.0096
505.00,0.0098
504.00,0.0097
503.00,0.0094
502.00,0.0088
501.00,0.0082
500.00,0.0076
499.00,0.0073
498.00,0.0074
497.00,0.0076
496.00,0.0078
495.00,0.0078
494.00,0.0077
493.00,0.0072
492.00,0.0067
491.00,0.0065
490.00,0.0069
489.00,0.0078
488.00,0.0086
487.00,0.0092
486.00,0.0097
485.00,0.0101
484.00,0.0106
483.00,0.0113
482.00,0.0121
481.00,0.0128
480.00,0.0134
479.00,0.0139
478.00,0.0143
477.00,0.0145
476.00,0.0146
475.00,0.0147
474.00,0.0149
473.00,0.0152
472.00,0.0152
471.00,0.0147
470.00,0.0139
469.00,0.0133
468.00,0.0134
467.00,0.0139
466.00,0.0143
465.00,0.0140
464.00,0.0134
463.00,0.0129
462.00,0.0124
461.00,0.0120
460.00,0.0115
459.00,0.0110
458.00,0.0103
457.00,0.0094
456.00,0.0085
455.00,0.0079
454.00,0.0076
453.00,0.0081
452.00,0.0077
451.00,0.0069
450.00,0.0060
