Created as New Dataset,Sample 007 By Administrator Date Thursday, May 29 2025
cm-1,A
4000.00,0.0076
3999.00,0.0076
3998.00,0.0076
3997.00,0.0076
3996.00,0.0076
3995.00,0.0076
3994.00,0.0076
3993.00,0.0076
3992.00,0.0077
3991.00,0.0077
3990.00,0.0077
3989.00,0.0077
3988.00,0.0077
3987.00,0.0077
3986.00,0.0077
3985.00,0.0077
3984.00,0.0077
3983.00,0.0077
3982.00,0.0077
3981.00,0.0078
3980.00,0.0078
3979.00,0.0078
3978.00,0.0078
3977.00,0.0078
3976.00,0.0077
3975.00,0.0077
3974.00,0.0077
3973.00,0.0077
3972.00,0.0077
3971.00,0.0077
3970.00,0.0077
3969.00,0.0077
3968.00,0.0077
3967.00,0.0077
3966.00,0.0077
3965.00,0.0078
3964.00,0.0078
3963.00,0.0078
3962.00,0.0078
3961.00,0.0078
3960.00,0.0078
3959.00,0.0078
3958.00,0.0078
3957.00,0.0078
3956.00,0.0078
3955.00,0.0078
3954.00,0.0078
3953.00,0.0078
3952.00,0.0078
3951.00,0.0078
3950.00,0.0079
3949.00,0.0078
3948.00,0.0078
3947.00,0.0078
3946.00,0.0078
3945.00,0.0079
3944.00,0.0079
3943.00,0.0080
3942.00,0.0079
3941.00,0.0079
3940.00,0.0078
3939.00,0.0078
3938.00,0.0078
3937.00,0.0078
3936.00,0.0078
3935.00,0.0078
3934.00,0.0079
3933.00,0.0079
3932.00,0.0079
3931.00,0.0078
3930.00,0.0078
3929.00,0.0078
3928.00,0.0078
3927.00,0.0078
3926.00,0.0079
3925.00,0.0078
3924.00,0.0078
3923.00,0.0077
3922.00,0.0077
3921.00,0.0077
3920.00,0.0077
3919.00,0.0078
3918.00,0.0078
3917.00,0.0078
3916.00,0.0077
3915.00,0.0077
3914.00,0.0077
3913.00,0.0077
3912.00,0.0077
3911.00,0.0077
3910.00,0.0077
3909.00,0.0077
3908.00,0.0078
3907.00,0.0078
3906.00,0.0078
3905.00,0.0078
3904.00,0.0078
3903.00,0.0078
3902.00,0.0077
3901.00,0.0077
3900.00,0.0076
3899.00,0.0076
3898.00,0.0075
3897.00,0.0075
3896.00,0.0076
3895.00,0.0076
3894.00,0.0077
3893.00,0.0077
3892.00,0.0077
3891.00,0.0076
3890.00,0.0076
3889.00,0.0076
3888.00,0.0076
3887.00,0.0077
3886.00,0.0076
3885.00,0.0076
3884.00,0.0076
3883.00,0.0076
3882.00,0.0076
3881.00,0.0076
3880.00,0.0076
3879.00,0.0076
3878.00,0.0076
3877.00,0.0076
3876.00,0.0077
3875.00,0.0077
3874.00,0.0077
3873.00,0.0077
3872.00,0.0077
3871.00,0.0077
3870.00,0.0076
3869.00,0.0075
3868.00,0.0074
3867.00,0.0075
3866.00,0.0076
3865.00,0.0076
3864.00,0.0076
3863.00,0.0076
3862.00,0.0076
3861.00,0.0076
3860.00,0.0076
3859.00,0.0076
3858.00,0.0075
3857.00,0.0074
3856.00,0.0073
3855.00,0.0073
3854.00,0.0073
3853.00,0.0072
3852.00,0.0072
3851.00,0.0072
3850.00,0.0073
3849.00,0.0074
3848.00,0.0075
3847.00,0.0076
3846.00,0.0077
3845.00,0.0077
3844.00,0.0077
3843.00,0.0077
3842.00,0.0077
3841.00,0.0077
3840.00,0.0077
3839.00,0.0076
3838.00,0.0075
3837.00,0.0075
3836.00,0.0075
3835.00,0.0075
3834.00,0.0076
3833.00,0.0076
3832.00,0.0076
3831.00,0.0076
3830.00,0.0076
3829.00,0.0076
3828.00,0.0077
3827.00,0.0077
3826.00,0.0077
3825.00,0.0077
3824.00,0.0077
3823.00,0.0077
3822.00,0.0077
3821.00,0.0076
3820.00,0.0076
3819.00,0.0076
3818.00,0.0076
3817.00,0.0076
3816.00,0.0076
3815.00,0.0077
3814.00,0.0077
3813.00,0.0078
3812.00,0.0078
3811.00,0.0079
3810.00,0.0079
3809.00,0.0079
3808.00,0.0079
3807.00,0.0079
3806.00,0.0078
3805.00,0.0078
3804.00,0.0078
3803.00,0.0078
3802.00,0.0079
3801.00,0.0078
3800.00,0.0078
3799.00,0.0078
3798.00,0.0079
3797.00,0.0079
3796.00,0.0079
3795.00,0.0079
3794.00,0.0080
3793.00,0.0080
3792.00,0.0081
3791.00,0.0082
3790.00,0.0082
3789.00,0.0082
3788.00,0.0082
3787.00,0.0081
3786.00,0.0081
3785.00,0.0081
3784.00,0.0081
3783.00,0.0081
3782.00,0.0082
3781.00,0.0082
3780.00,0.0082
3779.00,0.0083
3778.00,0.0083
3777.00,0.0083
3776.00,0.0083
3775.00,0.0083
3774.00,0.0083
3773.00,0.0083
3772.00,0.0083
3771.00,0.0082
3770.00,0.0082
3769.00,0.0082
3768.00,0.0082
3767.00,0.0083
3766.00,0.0084
3765.00,0.0084
3764.00,0.0085
3763.00,0.0085
3762.00,0.0085
3761.00,0.0086
3760.00,0.0086
3759.00,0.0086
3758.00,0.0086
3757.00,0.0085
3756.00,0.0085
3755.00,0.0084
3754.00,0.0083
3753.00,0.0083
3752.00,0.0083
3751.00,0.0083
3750.00,0.0083
3749.00,0.0083
3748.00,0.0083
3747.00,0.0083
3746.00,0.0084
3745.00,0.0084
3744.00,0.0085
3743.00,0.0085
3742.00,0.0087
3741.00,0.0088
3740.00,0.0089
3739.00,0.0089
3738.00,0.0090
3737.00,0.0091
3736.00,0.0091
3735.00,0.0091
3734.00,0.0090
3733.00,0.0089
3732.00,0.0089
3731.00,0.0089
3730.00,0.0090
3729.00,0.0092
3728.00,0.0093
3727.00,0.0094
3726.00,0.0094
3725.00,0.0095
3724.00,0.0096
3723.00,0.0096
3722.00,0.0096
3721.00,0.0096
3720.00,0.0096
3719.00,0.0097
3718.00,0.0097
3717.00,0.0098
3716.00,0.0098
3715.00,0.0099
3714.00,0.0099
3713.00,0.0100
3712.00,0.0101
3711.00,0.0102
3710.00,0.0103
3709.00,0.0103
3708.00,0.0104
3707.00,0.0105
3706.00,0.0106
3705.00,0.0106
3704.00,0.0107
3703.00,0.0109
3702.00,0.0110
3701.00,0.0111
3700.00,0.0113
3699.00,0.0114
3698.00,0.0116
3697.00,0.0117
3696.00,0.0118
3695.00,0.0119
3694.00,0.0120
3693.00,0.0121
3692.00,0.0122
3691.00,0.0123
3690.00,0.0125
3689.00,0.0127
3688.00,0.0130
3687.00,0.0132
3686.00,0.0135
3685.00,0.0137
3684.00,0.0140
3683.00,0.0142
3682.00,0.0144
3681.00,0.0146
3680.00,0.0147
3679.00,0.0148
3678.00,0.0150
3677.00,0.0152
3676.00,0.0155
3675.00,0.0159
3674.00,0.0162
3673.00,0.0166
3672.00,0.0170
3671.00,0.0174
3670.00,0.0178
3669.00,0.0183
3668.00,0.0187
3667.00,0.0192
3666.00,0.0196
3665.00,0.0200
3664.00,0.0204
3663.00,0.0208
3662.00,0.0212
3661.00,0.0216
3660.00,0.0220
3659.00,0.0224
3658.00,0.0228
3657.00,0.0233
3656.00,0.0238
3655.00,0.0243
3654.00,0.0247
3653.00,0.0250
3652.00,0.0255
3651.00,0.0260
3650.00,0.0268
3649.00,0.0277
3648.00,0.0286
3647.00,0.0294
3646.00,0.0300
3645.00,0.0307
3644.00,0.0312
3643.00,0.0318
3642.00,0.0323
3641.00,0.0328
3640.00,0.0334
3639.00,0.0339
3638.00,0.0345
3637.00,0.0352
3636.00,0.0358
3635.00,0.0364
3634.00,0.0369
3633.00,0.0374
3632.00,0.0379
3631.00,0.0384
3630.00,0.0392
3629.00,0.0401
3628.00,0.0411
3627.00,0.0419
3626.00,0.0427
3625.00,0.0433
3624.00,0.0439
3623.00,0.0443
3622.00,0.0448
3621.00,0.0454
3620.00,0.0461
3619.00,0.0469
3618.00,0.0477
3617.00,0.0485
3616.00,0.0492
3615.00,0.0498
3614.00,0.0505
3613.00,0.0511
3612.00,0.0518
3611.00,0.0525
3610.00,0.0532
3609.00,0.0539
3608.00,0.0547
3607.00,0.0555
3606.00,0.0562
3605.00,0.0570
3604.00,0.0577
3603.00,0.0584
3602.00,0.0590
3601.00,0.0597
3600.00,0.0600
3599.00,0.0606
3598.00,0.0612
3597.00,0.0618
3596.00,0.0625
3595.00,0.0632
3594.00,0.0639
3593.00,0.0645
3592.00,0.0651
3591.00,0.0656
3590.00,0.0662
3589.00,0.0668
3588.00,0.0676
3587.00,0.0685
3586.00,0.0693
3585.00,0.0700
3584.00,0.0706
3583.00,0.0711
3582.00,0.0717
3581.00,0.0723
3580.00,0.0729
3579.00,0.0735
3578.00,0.0741
3577.00,0.0747
3576.00,0.0753
3575.00,0.0760
3574.00,0.0766
3573.00,0.0772
3572.00,0.0777
3571.00,0.0782
3570.00,0.0787
3569.00,0.0792
3568.00,0.0799
3567.00,0.0807
3566.00,0.0816
3565.00,0.0825
3564.00,0.0832
3563.00,0.0838
3562.00,0.0844
3561.00,0.0849
3560.00,0.0855
3559.00,0.0861
3558.00,0.0867
3557.00,0.0872
3556.00,0.0878
3555.00,0.0883
3554.00,0.0890
3553.00,0.0896
3552.00,0.0903
3551.00,0.0909
3550.00,0.0915
3549.00,0.0921
3548.00,0.0928
3547.00,0.0934
3546.00,0.0941
3545.00,0.0949
3544.00,0.0956
3543.00,0.0962
3542.00,0.0968
3541.00,0.0974
3540.00,0.0979
3539.00,0.0985
3538.00,0.0991
3537.00,0.0997
3536.00,0.1002
3535.00,0.1008
3534.00,0.1014
3533.00,0.1019
3532.00,0.1024
3531.00,0.1030
3530.00,0.1036
3529.00,0.1043
3528.00,0.1050
3527.00,0.1056
3526.00,0.1063
3525.00,0.1070
3524.00,0.1076
3523.00,0.1082
3522.00,0.1087
3521.00,0.1093
3520.00,0.1099
3519.00,0.1104
3518.00,0.1110
3517.00,0.1116
3516.00,0.1122
3515.00,0.1128
3514.00,0.1134
3513.00,0.1139
3512.00,0.1145
3511.00,0.1150
3510.00,0.1156
3509.00,0.1161
3508.00,0.1167
3507.00,0.1173
3506.00,0.1180
3505.00,0.1187
3504.00,0.1193
3503.00,0.1200
3502.00,0.1206
3501.00,0.1212
3500.00,0.1218
3499.00,0.1224
3498.00,0.1230
3497.00,0.1235
3496.00,0.1241
3495.00,0.1247
3494.00,0.1252
3493.00,0.1257
3492.00,0.1262
3491.00,0.1267
3490.00,0.1272
3489.00,0.1278
3488.00,0.1284
3487.00,0.1289
3486.00,0.1295
3485.00,0.1300
3484.00,0.1305
3483.00,0.1311
3482.00,0.1317
3481.00,0.1323
3480.00,0.1329
3479.00,0.1334
3478.00,0.1339
3477.00,0.1344
3476.00,0.1349
3475.00,0.1354
3474.00,0.1359
3473.00,0.1365
3472.00,0.1371
3471.00,0.1377
3470.00,0.1383
3469.00,0.1389
3468.00,0.1394
3467.00,0.1398
3466.00,0.1402
3465.00,0.1407
3464.00,0.1412
3463.00,0.1417
3462.00,0.1422
3461.00,0.1427
3460.00,0.1431
3459.00,0.1436
3458.00,0.1440
3457.00,0.1445
3456.00,0.1450
3455.00,0.1454
3454.00,0.1458
3453.00,0.1462
3452.00,0.1466
3451.00,0.1470
3450.00,0.1474
3449.00,0.1479
3448.00,0.1483
3447.00,0.1488
3446.00,0.1492
3445.00,0.1497
3444.00,0.1501
3443.00,0.1505
3442.00,0.1509
3441.00,0.1514
3440.00,0.1519
3439.00,0.1523
3438.00,0.1528
3437.00,0.1532
3436.00,0.1536
3435.00,0.1539
3434.00,0.1542
3433.00,0.1545
3432.00,0.1549
3431.00,0.1552
3430.00,0.1555
3429.00,0.1558
3428.00,0.1560
3427.00,0.1562
3426.00,0.1564
3425.00,0.1567
3424.00,0.1569
3423.00,0.1572
3422.00,0.1576
3421.00,0.1579
3420.00,0.1582
3419.00,0.1584
3418.00,0.1587
3417.00,0.1589
3416.00,0.1592
3415.00,0.1594
3414.00,0.1597
3413.00,0.1599
3412.00,0.1601
3411.00,0.1603
3410.00,0.1604
3409.00,0.1606
3408.00,0.1607
3407.00,0.1608
3406.00,0.1610
3405.00,0.1612
3404.00,0.1614
3403.00,0.1616
3402.00,0.1618
3401.00,0.1619
3400.00,0.1620
3399.00,0.1620
3398.00,0.1620
3397.00,0.1620
3396.00,0.1620
3395.00,0.1621
3394.00,0.1622
3393.00,0.1622
3392.00,0.1623
3391.00,0.1622
3390.00,0.1621
3389.00,0.1620
3388.00,0.1619
3387.00,0.1618
3386.00,0.1617
3385.00,0.1617
3384.00,0.1617
3383.00,0.1616
3382.00,0.1615
3381.00,0.1615
3380.00,0.1614
3379.00,0.1613
3378.00,0.1612
3377.00,0.1610
3376.00,0.1609
3375.00,0.1607
3374.00,0.1606
3373.00,0.1605
3372.00,0.1604
3371.00,0.1603
3370.00,0.1602
3369.00,0.1600
3368.00,0.1598
3367.00,0.1595
3366.00,0.1592
3365.00,0.1589
3364.00,0.1586
3363.00,0.1583
3362.00,0.1581
3361.00,0.1578
3360.00,0.1575
3359.00,0.1572
3358.00,0.1568
3357.00,0.1565
3356.00,0.1563
3355.00,0.1560
3354.00,0.1558
3353.00,0.1556
3352.00,0.1553
3351.00,0.1549
3350.00,0.1546
3349.00,0.1542
3348.00,0.1538
3347.00,0.1534
3346.00,0.1530
3345.00,0.1527
3344.00,0.1524
3343.00,0.1521
3342.00,0.1518
3341.00,0.1514
3340.00,0.1510
3339.00,0.1506
3338.00,0.1501
3337.00,0.1497
3336.00,0.1493
3335.00,0.1489
3334.00,0.1485
3333.00,0.1481
3332.00,0.1477
3331.00,0.1473
3330.00,0.1469
3329.00,0.1465
3328.00,0.1461
3327.00,0.1457
3326.00,0.1453
3325.00,0.1449
3324.00,0.1445
3323.00,0.1441
3322.00,0.1437
3321.00,0.1434
3320.00,0.1430
3319.00,0.1426
3318.00,0.1422
3317.00,0.1418
3316.00,0.1414
3315.00,0.1411
3314.00,0.1407
3313.00,0.1404
3312.00,0.1401
3311.00,0.1397
3310.00,0.1394
3309.00,0.1390
3308.00,0.1386
3307.00,0.1383
3306.00,0.1379
3305.00,0.1375
3304.00,0.1371
3303.00,0.1367
3302.00,0.1364
3301.00,0.1360
3300.00,0.1356
3299.00,0.1353
3298.00,0.1350
3297.00,0.1347
3296.00,0.1344
3295.00,0.1341
3294.00,0.1337
3293.00,0.1334
3292.00,0.1330
3291.00,0.1326
3290.00,0.1323
3289.00,0.1320
3288.00,0.1317
3287.00,0.1313
3286.00,0.1310
3285.00,0.1306
3284.00,0.1303
3283.00,0.1300
3282.00,0.1296
3281.00,0.1293
3280.00,0.1289
3279.00,0.1285
3278.00,0.1282
3277.00,0.1279
3276.00,0.1277
3275.00,0.1273
3274.00,0.1270
3273.00,0.1267
3272.00,0.1264
3271.00,0.1260
3270.00,0.1257
3269.00,0.1253
3268.00,0.1249
3267.00,0.1246
3266.00,0.1242
3265.00,0.1239
3264.00,0.1235
3263.00,0.1232
3262.00,0.1228
3261.00,0.1225
3260.00,0.1221
3259.00,0.1218
3258.00,0.1215
3257.00,0.1211
3256.00,0.1207
3255.00,0.1203
3254.00,0.1199
3253.00,0.1195
3252.00,0.1191
3251.00,0.1187
3250.00,0.1183
3249.00,0.1179
3248.00,0.1175
3247.00,0.1171
3246.00,0.1167
3245.00,0.1163
3244.00,0.1159
3243.00,0.1154
3242.00,0.1150
3241.00,0.1146
3240.00,0.1141
3239.00,0.1137
3238.00,0.1132
3237.00,0.1128
3236.00,0.1124
3235.00,0.1120
3234.00,0.1116
3233.00,0.1111
3232.00,0.1106
3231.00,0.1101
3230.00,0.1096
3229.00,0.1090
3228.00,0.1085
3227.00,0.1080
3226.00,0.1075
3225.00,0.1070
3224.00,0.1065
3223.00,0.1060
3222.00,0.1055
3221.00,0.1050
3220.00,0.1044
3219.00,0.1039
3218.00,0.1034
3217.00,0.1029
3216.00,0.1024
3215.00,0.1018
3214.00,0.1013
3213.00,0.1008
3212.00,0.1002
3211.00,0.0997
3210.00,0.0992
3209.00,0.0986
3208.00,0.0981
3207.00,0.0975
3206.00,0.0970
3205.00,0.0964
3204.00,0.0959
3203.00,0.0953
3202.00,0.0948
3201.00,0.0942
3200.00,0.0936
3199.00,0.0931
3198.00,0.0925
3197.00,0.0920
3196.00,0.0914
3195.00,0.0909
3194.00,0.0903
3193.00,0.0897
3192.00,0.0892
3191.00,0.0886
3190.00,0.0880
3189.00,0.0875
3188.00,0.0870
3187.00,0.0864
3186.00,0.0859
3185.00,0.0853
3184.00,0.0847
3183.00,0.0842
3182.00,0.0836
3181.00,0.0831
3180.00,0.0826
3179.00,0.0820
3178.00,0.0815
3177.00,0.0809
3176.00,0.0804
3175.00,0.0799
3174.00,0.0793
3173.00,0.0788
3172.00,0.0782
3171.00,0.0777
3170.00,0.0772
3169.00,0.0767
3168.00,0.0762
3167.00,0.0757
3166.00,0.0751
3165.00,0.0746
3164.00,0.0741
3163.00,0.0736
3162.00,0.0731
3161.00,0.0726
3160.00,0.0721
3159.00,0.0716
3158.00,0.0711
3157.00,0.0707
3156.00,0.0703
3155.00,0.0698
3154.00,0.0693
3153.00,0.0688
3152.00,0.0683
3151.00,0.0679
3150.00,0.0674
3149.00,0.0669
3148.00,0.0665
3147.00,0.0660
3146.00,0.0655
3145.00,0.0650
3144.00,0.0646
3143.00,0.0641
3142.00,0.0637
3141.00,0.0633
3140.00,0.0628
3139.00,0.0624
3138.00,0.0619
3137.00,0.0615
3136.00,0.0611
3135.00,0.0607
3134.00,0.0603
3133.00,0.0599
3132.00,0.0595
3131.00,0.0591
3130.00,0.0587
3129.00,0.0582
3128.00,0.0577
3127.00,0.0573
3126.00,0.0569
3125.00,0.0565
3124.00,0.0562
3123.00,0.0559
3122.00,0.0556
3121.00,0.0552
3120.00,0.0549
3119.00,0.0545
3118.00,0.0541
3117.00,0.0538
3116.00,0.0534
3115.00,0.0530
3114.00,0.0525
3113.00,0.0522
3112.00,0.0518
3111.00,0.0515
3110.00,0.0512
3109.00,0.0508
3108.00,0.0505
3107.00,0.0501
3106.00,0.0498
3105.00,0.0495
3104.00,0.0492
3103.00,0.0489
3102.00,0.0486
3101.00,0.0482
3100.00,0.0479
3099.00,0.0476
3098.00,0.0473
3097.00,0.0469
3096.00,0.0466
3095.00,0.0463
3094.00,0.0460
3093.00,0.0457
3092.00,0.0454
3091.00,0.0452
3090.00,0.0449
3089.00,0.0446
3088.00,0.0443
3087.00,0.0441
3086.00,0.0438
3085.00,0.0435
3084.00,0.0433
3083.00,0.0430
3082.00,0.0428
3081.00,0.0425
3080.00,0.0422
3079.00,0.0419
3078.00,0.0416
3077.00,0.0413
3076.00,0.0410
3075.00,0.0408
3074.00,0.0405
3073.00,0.0403
3072.00,0.0401
3071.00,0.0399
3070.00,0.0397
3069.00,0.0395
3068.00,0.0392
3067.00,0.0390
3066.00,0.0388
3065.00,0.0385
3064.00,0.0383
3063.00,0.0381
3062.00,0.0378
3061.00,0.0376
3060.00,0.0374
3059.00,0.0371
3058.00,0.0369
3057.00,0.0367
3056.00,0.0364
3055.00,0.0362
3054.00,0.0359
3053.00,0.0357
3052.00,0.0355
3051.00,0.0353
3050.00,0.0351
3049.00,0.0349
3048.00,0.0347
3047.00,0.0345
3046.00,0.0344
3045.00,0.0342
3044.00,0.0340
3043.00,0.0338
3042.00,0.0336
3041.00,0.0334
3040.00,0.0332
3039.00,0.0330
3038.00,0.0328
3037.00,0.0326
3036.00,0.0324
3035.00,0.0322
3034.00,0.0320
3033.00,0.0319
3032.00,0.0318
3031.00,0.0316
3030.00,0.0314
3029.00,0.0312
3028.00,0.0310
3027.00,0.0309
3026.00,0.0308
3025.00,0.0307
3024.00,0.0305
3023.00,0.0304
3022.00,0.0302
3021.00,0.0300
3020.00,0.0299
3019.00,0.0297
3018.00,0.0296
3017.00,0.0295
3016.00,0.0293
3015.00,0.0292
3014.00,0.0291
3013.00,0.0290
3012.00,0.0289
3011.00,0.0288
3010.00,0.0287
3009.00,0.0286
3008.00,0.0284
3007.00,0.0283
3006.00,0.0282
3005.00,0.0281
3004.00,0.0280
3003.00,0.0279
3002.00,0.0278
3001.00,0.0277
3000.00,0.0276
2999.00,0.0275
2998.00,0.0275
2997.00,0.0274
2996.00,0.0273
2995.00,0.0273
2994.00,0.0272
2993.00,0.0272
2992.00,0.0271
2991.00,0.0271
2990.00,0.0270
2989.00,0.0270
2988.00,0.0269
2987.00,0.0269
2986.00,0.0269
2985.00,0.0269
2984.00,0.0269
2983.00,0.0269
2982.00,0.0269
2981.00,0.0269
2980.00,0.0269
2979.00,0.0269
2978.00,0.0269
2977.00,0.0270
2976.00,0.0270
2975.00,0.0271
2974.00,0.0271
2973.00,0.0271
2972.00,0.0271
2971.00,0.0271
2970.00,0.0272
2969.00,0.0273
2968.00,0.0273
2967.00,0.0273
2966.00,0.0273
2965.00,0.0274
2964.00,0.0274
2963.00,0.0275
2962.00,0.0276
2961.00,0.0276
2960.00,0.0276
2959.00,0.0276
2958.00,0.0276
2957.00,0.0275
2956.00,0.0275
2955.00,0.0274
2954.00,0.0273
2953.00,0.0272
2952.00,0.0271
2951.00,0.0270
2950.00,0.0269
2949.00,0.0269
2948.00,0.0269
2947.00,0.0269
2946.00,0.0269
2945.00,0.0269
2944.00,0.0269
2943.00,0.0269
2942.00,0.0270
2941.00,0.0270
2940.00,0.0270
2939.00,0.0271
2938.00,0.0272
2937.00,0.0274
2936.00,0.0275
2935.00,0.0276
2934.00,0.0277
2933.00,0.0279
2932.00,0.0280
2931.00,0.0282
2930.00,0.0283
2929.00,0.0285
2928.00,0.0286
2927.00,0.0288
2926.00,0.0289
2925.00,0.0290
2924.00,0.0291
2923.00,0.0293
2922.00,0.0294
2921.00,0.0294
2920.00,0.0294
2919.00,0.0293
2918.00,0.0292
2917.00,0.0289
2916.00,0.0286
2915.00,0.0282
2914.00,0.0277
2913.00,0.0273
2912.00,0.0268
2911.00,0.0264
2910.00,0.0261
2909.00,0.0258
2908.00,0.0255
2907.00,0.0253
2906.00,0.0251
2905.00,0.0249
2904.00,0.0247
2903.00,0.0245
2902.00,0.0243
2901.00,0.0241
2900.00,0.0239
2899.00,0.0237
2898.00,0.0236
2897.00,0.0234
2896.00,0.0233
2895.00,0.0231
2894.00,0.0229
2893.00,0.0227
2892.00,0.0226
2891.00,0.0225
2890.00,0.0223
2889.00,0.0222
2888.00,0.0221
2887.00,0.0219
2886.00,0.0217
2885.00,0.0215
2884.00,0.0214
2883.00,0.0213
2882.00,0.0212
2881.00,0.0211
2880.00,0.0210
2879.00,0.0210
2878.00,0.0210
2877.00,0.0209
2876.00,0.0208
2875.00,0.0207
2874.00,0.0206
2873.00,0.0206
2872.00,0.0205
2871.00,0.0204
2870.00,0.0203
2869.00,0.0202
2868.00,0.0201
2867.00,0.0200
2866.00,0.0199
2865.00,0.0198
2864.00,0.0197
2863.00,0.0197
2862.00,0.0197
2861.00,0.0197
2860.00,0.0198
2859.00,0.0199
2858.00,0.0200
2857.00,0.0201
2856.00,0.0202
2855.00,0.0204
2854.00,0.0206
2853.00,0.0207
2852.00,0.0208
2851.00,0.0207
2850.00,0.0206
2849.00,0.0203
2848.00,0.0199
2847.00,0.0194
2846.00,0.0189
2845.00,0.0185
2844.00,0.0181
2843.00,0.0177
2842.00,0.0175
2841.00,0.0172
2840.00,0.0170
2839.00,0.0168
2838.00,0.0166
2837.00,0.0165
2836.00,0.0164
2835.00,0.0163
2834.00,0.0162
2833.00,0.0160
2832.00,0.0159
2831.00,0.0158
2830.00,0.0157
2829.00,0.0156
2828.00,0.0155
2827.00,0.0154
2826.00,0.0154
2825.00,0.0153
2824.00,0.0152
2823.00,0.0152
2822.00,0.0151
2821.00,0.0151
2820.00,0.0150
2819.00,0.0149
2818.00,0.0149
2817.00,0.0148
2816.00,0.0147
2815.00,0.0146
2814.00,0.0145
2813.00,0.0145
2812.00,0.0145
2811.00,0.0144
2810.00,0.0144
2809.00,0.0143
2808.00,0.0143
2807.00,0.0142
2806.00,0.0142
2805.00,0.0141
2804.00,0.0140
2803.00,0.0140
2802.00,0.0139
2801.00,0.0139
2800.00,0.0138
2799.00,0.0138
2798.00,0.0137
2797.00,0.0137
2796.00,0.0136
2795.00,0.0136
2794.00,0.0135
2793.00,0.0135
2792.00,0.0135
2791.00,0.0135
2790.00,0.0135
2789.00,0.0134
2788.00,0.0133
2787.00,0.0132
2786.00,0.0131
2785.00,0.0131
2784.00,0.0131
2783.00,0.0130
2782.00,0.0130
2781.00,0.0130
2780.00,0.0130
2779.00,0.0130
2778.00,0.0129
2777.00,0.0129
2776.00,0.0129
2775.00,0.0129
2774.00,0.0129
2773.00,0.0128
2772.00,0.0127
2771.00,0.0127
2770.00,0.0126
2769.00,0.0126
2768.00,0.0126
2767.00,0.0125
2766.00,0.0125
2765.00,0.0124
2764.00,0.0124
2763.00,0.0124
2762.00,0.0124
2761.00,0.0123
2760.00,0.0123
2759.00,0.0123
2758.00,0.0122
2757.00,0.0122
2756.00,0.0122
2755.00,0.0121
2754.00,0.0121
2753.00,0.0120
2752.00,0.0120
2751.00,0.0120
2750.00,0.0120
2749.00,0.0120
2748.00,0.0120
2747.00,0.0119
2746.00,0.0119
2745.00,0.0119
2744.00,0.0118
2743.00,0.0118
2742.00,0.0117
2741.00,0.0117
2740.00,0.0117
2739.00,0.0117
2738.00,0.0117
2737.00,0.0117
2736.00,0.0117
2735.00,0.0117
2734.00,0.0117
2733.00,0.0117
2732.00,0.0117
2731.00,0.0116
2730.00,0.0116
2729.00,0.0115
2728.00,0.0115
2727.00,0.0114
2726.00,0.0114
2725.00,0.0114
2724.00,0.0114
2723.00,0.0113
2722.00,0.0113
2721.00,0.0113
2720.00,0.0112
2719.00,0.0112
2718.00,0.0112
2717.00,0.0112
2716.00,0.0112
2715.00,0.0112
2714.00,0.0111
2713.00,0.0111
2712.00,0.0111
2711.00,0.0111
2710.00,0.0111
2709.00,0.0110
2708.00,0.0110
2707.00,0.0110
2706.00,0.0110
2705.00,0.0110
2704.00,0.0109
2703.00,0.0109
2702.00,0.0109
2701.00,0.0108
2700.00,0.0108
2699.00,0.0108
2698.00,0.0108
2697.00,0.0108
2696.00,0.0108
2695.00,0.0108
2694.00,0.0107
2693.00,0.0107
2692.00,0.0107
2691.00,0.0107
2690.00,0.0107
2689.00,0.0106
2688.00,0.0106
2687.00,0.0106
2686.00,0.0106
2685.00,0.0106
2684.00,0.0105
2683.00,0.0105
2682.00,0.0105
2681.00,0.0105
2680.00,0.0105
2679.00,0.0105
2678.00,0.0105
2677.00,0.0104
2676.00,0.0104
2675.00,0.0104
2674.00,0.0103
2673.00,0.0103
2672.00,0.0103
2671.00,0.0103
2670.00,0.0103
2669.00,0.0103
2668.00,0.0103
2667.00,0.0103
2666.00,0.0104
2665.00,0.0104
2664.00,0.0104
2663.00,0.0105
2662.00,0.0105
2661.00,0.0106
2660.00,0.0106
2659.00,0.0106
2658.00,0.0106
2657.00,0.0106
2656.00,0.0106
2655.00,0.0106
2654.00,0.0105
2653.00,0.0105
2652.00,0.0105
2651.00,0.0105
2650.00,0.0104
2649.00,0.0104
2648.00,0.0104
2647.00,0.0104
2646.00,0.0104
2645.00,0.0104
2644.00,0.0103
2643.00,0.0102
2642.00,0.0102
2641.00,0.0102
2640.00,0.0101
2639.00,0.0101
2638.00,0.0101
2637.00,0.0101
2636.00,0.0101
2635.00,0.0101
2634.00,0.0101
2633.00,0.0100
2632.00,0.0100
2631.00,0.0100
2630.00,0.0099
2629.00,0.0099
2628.00,0.0098
2627.00,0.0097
2626.00,0.0097
2625.00,0.0097
2624.00,0.0096
2623.00,0.0096
2622.00,0.0096
2621.00,0.0096
2620.00,0.0095
2619.00,0.0095
2618.00,0.0095
2617.00,0.0094
2616.00,0.0094
2615.00,0.0093
2614.00,0.0093
2613.00,0.0093
2612.00,0.0093
2611.00,0.0093
2610.00,0.0093
2609.00,0.0093
2608.00,0.0093
2607.00,0.0092
2606.00,0.0092
2605.00,0.0091
2604.00,0.0091
2603.00,0.0091
2602.00,0.0091
2601.00,0.0091
2600.00,0.0090
2599.00,0.0090
2598.00,0.0089
2597.00,0.0088
2596.00,0.0088
2595.00,0.0088
2594.00,0.0088
2593.00,0.0088
2592.00,0.0088
2591.00,0.0087
2590.00,0.0087
2589.00,0.0088
2588.00,0.0088
2587.00,0.0088
2586.00,0.0087
2585.00,0.0087
2584.00,0.0086
2583.00,0.0086
2582.00,0.0085
2581.00,0.0085
2580.00,0.0085
2579.00,0.0085
2578.00,0.0085
2577.00,0.0085
2576.00,0.0085
2575.00,0.0084
2574.00,0.0084
2573.00,0.0084
2572.00,0.0084
2571.00,0.0084
2570.00,0.0084
2569.00,0.0084
2568.00,0.0083
2567.00,0.0083
2566.00,0.0083
2565.00,0.0082
2564.00,0.0082
2563.00,0.0083
2562.00,0.0083
2561.00,0.0083
2560.00,0.0082
2559.00,0.0082
2558.00,0.0081
2557.00,0.0081
2556.00,0.0080
2555.00,0.0080
2554.00,0.0080
2553.00,0.0080
2552.00,0.0081
2551.00,0.0081
2550.00,0.0081
2549.00,0.0081
2548.00,0.0081
2547.00,0.0081
2546.00,0.0081
2545.00,0.0081
2544.00,0.0082
2543.00,0.0082
2542.00,0.0081
2541.00,0.0081
2540.00,0.0081
2539.00,0.0081
2538.00,0.0081
2537.00,0.0081
2536.00,0.0080
2535.00,0.0079
2534.00,0.0078
2533.00,0.0077
2532.00,0.0077
2531.00,0.0077
2530.00,0.0077
2529.00,0.0077
2528.00,0.0076
2527.00,0.0076
2526.00,0.0076
2525.00,0.0077
2524.00,0.0078
2523.00,0.0078
2522.00,0.0078
2521.00,0.0077
2520.00,0.0077
2519.00,0.0078
2518.00,0.0079
2517.00,0.0079
2516.00,0.0079
2515.00,0.0079
2514.00,0.0078
2513.00,0.0078
2512.00,0.0078
2511.00,0.0078
2510.00,0.0078
2509.00,0.0078
2508.00,0.0078
2507.00,0.0078
2506.00,0.0078
2505.00,0.0077
2504.00,0.0077
2503.00,0.0077
2502.00,0.0078
2501.00,0.0078
2500.00,0.0078
2499.00,0.0078
2498.00,0.0078
2497.00,0.0078
2496.00,0.0078
2495.00,0.0078
2494.00,0.0078
2493.00,0.0078
2492.00,0.0078
2491.00,0.0077
2490.00,0.0077
2489.00,0.0076
2488.00,0.0076
2487.00,0.0075
2486.00,0.0075
2485.00,0.0075
2484.00,0.0075
2483.00,0.0075
2482.00,0.0076
2481.00,0.0076
2480.00,0.0075
2479.00,0.0075
2478.00,0.0075
2477.00,0.0076
2476.00,0.0076
2475.00,0.0075
2474.00,0.0075
2473.00,0.0076
2472.00,0.0076
2471.00,0.0077
2470.00,0.0076
2469.00,0.0076
2468.00,0.0075
2467.00,0.0075
2466.00,0.0075
2465.00,0.0076
2464.00,0.0077
2463.00,0.0077
2462.00,0.0077
2461.00,0.0077
2460.00,0.0077
2459.00,0.0078
2458.00,0.0078
2457.00,0.0078
2456.00,0.0078
2455.00,0.0078
2454.00,0.0078
2453.00,0.0078
2452.00,0.0079
2451.00,0.0079
2450.00,0.0079
2449.00,0.0079
2448.00,0.0079
2447.00,0.0079
2446.00,0.0078
2445.00,0.0078
2444.00,0.0078
2443.00,0.0077
2442.00,0.0077
2441.00,0.0078
2440.00,0.0078
2439.00,0.0078
2438.00,0.0078
2437.00,0.0077
2436.00,0.0076
2435.00,0.0076
2434.00,0.0076
2433.00,0.0077
2432.00,0.0077
2431.00,0.0077
2430.00,0.0077
2429.00,0.0077
2428.00,0.0076
2427.00,0.0076
2426.00,0.0076
2425.00,0.0077
2424.00,0.0077
2423.00,0.0077
2422.00,0.0076
2421.00,0.0076
2420.00,0.0076
2419.00,0.0076
2418.00,0.0076
2417.00,0.0076
2416.00,0.0075
2415.00,0.0075
2414.00,0.0075
2413.00,0.0075
2412.00,0.0076
2411.00,0.0076
2410.00,0.0076
2409.00,0.0077
2408.00,0.0077
2407.00,0.0076
2406.00,0.0076
2405.00,0.0075
2404.00,0.0075
2403.00,0.0075
2402.00,0.0076
2401.00,0.0076
2400.00,0.0077
2399.00,0.0077
2398.00,0.0077
2397.00,0.0077
2396.00,0.0077
2395.00,0.0078
2394.00,0.0078
2393.00,0.0078
2392.00,0.0078
2391.00,0.0078
2390.00,0.0078
2389.00,0.0078
2388.00,0.0077
2387.00,0.0077
2386.00,0.0077
2385.00,0.0077
2384.00,0.0078
2383.00,0.0078
2382.00,0.0077
2381.00,0.0077
2380.00,0.0077
2379.00,0.0076
2378.00,0.0076
2377.00,0.0077
2376.00,0.0077
2375.00,0.0078
2374.00,0.0079
2373.00,0.0079
2372.00,0.0079
2371.00,0.0079
2370.00,0.0079
2369.00,0.0079
2368.00,0.0079
2367.00,0.0079
2366.00,0.0079
2365.00,0.0080
2364.00,0.0081
2363.00,0.0082
2362.00,0.0083
2361.00,0.0084
2360.00,0.0084
2359.00,0.0084
2358.00,0.0084
2357.00,0.0084
2356.00,0.0085
2355.00,0.0085
2354.00,0.0086
2353.00,0.0086
2352.00,0.0086
2351.00,0.0086
2350.00,0.0087
2349.00,0.0088
2348.00,0.0090
2347.00,0.0091
2346.00,0.0091
2345.00,0.0090
2344.00,0.0090
2343.00,0.0091
2342.00,0.0092
2341.00,0.0094
2340.00,0.0095
2339.00,0.0096
2338.00,0.0095
2337.00,0.0095
2336.00,0.0095
2335.00,0.0095
2334.00,0.0095
2333.00,0.0095
2332.00,0.0094
2331.00,0.0094
2330.00,0.0093
2329.00,0.0094
2328.00,0.0097
2327.00,0.0101
2326.00,0.0106
2325.00,0.0111
2324.00,0.0114
2323.00,0.0115
2322.00,0.0113
2321.00,0.0111
2320.00,0.0108
2319.00,0.0106
2318.00,0.0105
2317.00,0.0105
2316.00,0.0104
2315.00,0.0104
2314.00,0.0104
2313.00,0.0104
2312.00,0.0104
2311.00,0.0104
2310.00,0.0104
2309.00,0.0104
2308.00,0.0104
2307.00,0.0103
2306.00,0.0103
2305.00,0.0103
2304.00,0.0103
2303.00,0.0103
2302.00,0.0104
2301.00,0.0104
2300.00,0.0104
2299.00,0.0104
2298.00,0.0104
2297.00,0.0104
2296.00,0.0105
2295.00,0.0106
2294.00,0.0107
2293.00,0.0109
2292.00,0.0110
2291.00,0.0111
2290.00,0.0112
2289.00,0.0113
2288.00,0.0113
2287.00,0.0114
2286.00,0.0113
2285.00,0.0113
2284.00,0.0113
2283.00,0.0112
2282.00,0.0112
2281.00,0.0111
2280.00,0.0110
2279.00,0.0109
2278.00,0.0109
2277.00,0.0108
2276.00,0.0107
2275.00,0.0107
2274.00,0.0106
2273.00,0.0105
2272.00,0.0104
2271.00,0.0104
2270.00,0.0105
2269.00,0.0105
2268.00,0.0105
2267.00,0.0104
2266.00,0.0103
2265.00,0.0103
2264.00,0.0103
2263.00,0.0104
2262.00,0.0105
2261.00,0.0105
2260.00,0.0105
2259.00,0.0105
2258.00,0.0104
2257.00,0.0103
2256.00,0.0102
2255.00,0.0101
2254.00,0.0100
2253.00,0.0099
2252.00,0.0099
2251.00,0.0098
2250.00,0.0098
2249.00,0.0099
2248.00,0.0100
2247.00,0.0102
2246.00,0.0104
2245.00,0.0105
2244.00,0.0106
2243.00,0.0106
2242.00,0.0105
2241.00,0.0105
2240.00,0.0104
2239.00,0.0102
2238.00,0.0102
2237.00,0.0102
2236.00,0.0103
2235.00,0.0105
2234.00,0.0106
2233.00,0.0106
2232.00,0.0104
2231.00,0.0102
2230.00,0.0099
2229.00,0.0097
2228.00,0.0097
2227.00,0.0097
2226.00,0.0099
2225.00,0.0100
2224.00,0.0102
2223.00,0.0104
2222.00,0.0104
2221.00,0.0103
2220.00,0.0101
2219.00,0.0099
2218.00,0.0098
2217.00,0.0099
2216.00,0.0100
2215.00,0.0101
2214.00,0.0102
2213.00,0.0102
2212.00,0.0103
2211.00,0.0103
2210.00,0.0102
2209.00,0.0102
2208.00,0.0101
2207.00,0.0101
2206.00,0.0101
2205.00,0.0103
2204.00,0.0105
2203.00,0.0105
2202.00,0.0104
2201.00,0.0103
2200.00,0.0103
2199.00,0.0104
2198.00,0.0104
2197.00,0.0105
2196.00,0.0105
2195.00,0.0103
2194.00,0.0100
2193.00,0.0098
2192.00,0.0099
2191.00,0.0103
2190.00,0.0107
2189.00,0.0110
2188.00,0.0111
2187.00,0.0110
2186.00,0.0108
2185.00,0.0107
2184.00,0.0105
2183.00,0.0104
2182.00,0.0102
2181.00,0.0101
2180.00,0.0101
2179.00,0.0102
2178.00,0.0102
2177.00,0.0101
2176.00,0.0100
2175.00,0.0098
2174.00,0.0097
2173.00,0.0098
2172.00,0.0101
2171.00,0.0104
2170.00,0.0107
2169.00,0.0110
2168.00,0.0114
2167.00,0.0117
2166.00,0.0119
2165.00,0.0119
2164.00,0.0120
2163.00,0.0120
2162.00,0.0120
2161.00,0.0115
2160.00,0.0103
2159.00,0.0086
2158.00,0.0068
2157.00,0.0058
2156.00,0.0057
2155.00,0.0061
2154.00,0.0067
2153.00,0.0073
2152.00,0.0077
2151.00,0.0081
2150.00,0.0083
2149.00,0.0083
2148.00,0.0084
2147.00,0.0084
2146.00,0.0086
2145.00,0.0087
2144.00,0.0089
2143.00,0.0089
2142.00,0.0090
2141.00,0.0091
2140.00,0.0091
2139.00,0.0090
2138.00,0.0088
2137.00,0.0086
2136.00,0.0085
2135.00,0.0084
2134.00,0.0084
2133.00,0.0086
2132.00,0.0089
2131.00,0.0093
2130.00,0.0095
2129.00,0.0097
2128.00,0.0098
2127.00,0.0100
2126.00,0.0102
2125.00,0.0104
2124.00,0.0105
2123.00,0.0106
2122.00,0.0107
2121.00,0.0108
2120.00,0.0111
2119.00,0.0113
2118.00,0.0115
2117.00,0.0117
2116.00,0.0119
2115.00,0.0121
2114.00,0.0123
2113.00,0.0124
2112.00,0.0125
2111.00,0.0125
2110.00,0.0124
2109.00,0.0123
2108.00,0.0122
2107.00,0.0122
2106.00,0.0122
2105.00,0.0122
2104.00,0.0122
2103.00,0.0122
2102.00,0.0121
2101.00,0.0121
2100.00,0.0122
2099.00,0.0122
2098.00,0.0122
2097.00,0.0120
2096.00,0.0119
2095.00,0.0117
2094.00,0.0115
2093.00,0.0115
2092.00,0.0116
2091.00,0.0117
2090.00,0.0118
2089.00,0.0118
2088.00,0.0119
2087.00,0.0119
2086.00,0.0119
2085.00,0.0119
2084.00,0.0119
2083.00,0.0120
2082.00,0.0121
2081.00,0.0123
2080.00,0.0124
2079.00,0.0125
2078.00,0.0124
2077.00,0.0123
2076.00,0.0122
2075.00,0.0121
2074.00,0.0120
2073.00,0.0119
2072.00,0.0118
2071.00,0.0117
2070.00,0.0116
2069.00,0.0116
2068.00,0.0115
2067.00,0.0114
2066.00,0.0113
2065.00,0.0112
2064.00,0.0112
2063.00,0.0114
2062.00,0.0115
2061.00,0.0115
2060.00,0.0115
2059.00,0.0114
2058.00,0.0113
2057.00,0.0112
2056.00,0.0112
2055.00,0.0111
2054.00,0.0112
2053.00,0.0116
2052.00,0.0122
2051.00,0.0125
2050.00,0.0124
2049.00,0.0119
2048.00,0.0115
2047.00,0.0112
2046.00,0.0110
2045.00,0.0108
2044.00,0.0107
2043.00,0.0106
2042.00,0.0105
2041.00,0.0104
2040.00,0.0104
2039.00,0.0104
2038.00,0.0104
2037.00,0.0103
2036.00,0.0102
2035.00,0.0100
2034.00,0.0096
2033.00,0.0093
2032.00,0.0091
2031.00,0.0088
2030.00,0.0086
2029.00,0.0084
2028.00,0.0086
2027.00,0.0088
2026.00,0.0089
2025.00,0.0089
2024.00,0.0089
2023.00,0.0091
2022.00,0.0093
2021.00,0.0093
2020.00,0.0091
2019.00,0.0087
2018.00,0.0083
2017.00,0.0081
2016.00,0.0082
2015.00,0.0085
2014.00,0.0087
2013.00,0.0089
2012.00,0.0091
2011.00,0.0093
2010.00,0.0092
2009.00,0.0090
2008.00,0.0085
2007.00,0.0079
2006.00,0.0074
2005.00,0.0072
2004.00,0.0073
2003.00,0.0075
2002.00,0.0077
2001.00,0.0080
2000.00,0.0083
1999.00,0.0086
1998.00,0.0089
1997.00,0.0092
1996.00,0.0094
1995.00,0.0094
1994.00,0.0092
1993.00,0.0089
1992.00,0.0088
1991.00,0.0089
1990.00,0.0091
1989.00,0.0093
1988.00,0.0092
1987.00,0.0090
1986.00,0.0089
1985.00,0.0088
1984.00,0.0090
1983.00,0.0093
1982.00,0.0097
1981.00,0.0101
1980.00,0.0103
1979.00,0.0101
1978.00,0.0094
1977.00,0.0087
1976.00,0.0082
1975.00,0.0079
1974.00,0.0076
1973.00,0.0072
1972.00,0.0070
1971.00,0.0069
1970.00,0.0069
1969.00,0.0070
1968.00,0.0071
1967.00,0.0071
1966.00,0.0071
1965.00,0.0071
1964.00,0.0073
1963.00,0.0073
1962.00,0.0072
1961.00,0.0069
1960.00,0.0066
1959.00,0.0064
1958.00,0.0064
1957.00,0.0065
1956.00,0.0068
1955.00,0.0070
1954.00,0.0072
1953.00,0.0072
1952.00,0.0073
1951.00,0.0073
1950.00,0.0074
1949.00,0.0075
1948.00,0.0075
1947.00,0.0076
1946.00,0.0076
1945.00,0.0076
1944.00,0.0077
1943.00,0.0077
1942.00,0.0078
1941.00,0.0078
1940.00,0.0078
1939.00,0.0077
1938.00,0.0076
1937.00,0.0076
1936.00,0.0077
1935.00,0.0078
1934.00,0.0079
1933.00,0.0079
1932.00,0.0079
1931.00,0.0078
1930.00,0.0078
1929.00,0.0079
1928.00,0.0079
1927.00,0.0079
1926.00,0.0079
1925.00,0.0080
1924.00,0.0081
1923.00,0.0081
1922.00,0.0081
1921.00,0.0081
1920.00,0.0083
1919.00,0.0083
1918.00,0.0083
1917.00,0.0082
1916.00,0.0083
1915.00,0.0083
1914.00,0.0083
1913.00,0.0083
1912.00,0.0084
1911.00,0.0084
1910.00,0.0084
1909.00,0.0085
1908.00,0.0085
1907.00,0.0085
1906.00,0.0085
1905.00,0.0084
1904.00,0.0083
1903.00,0.0082
1902.00,0.0081
1901.00,0.0081
1900.00,0.0081
1899.00,0.0082
1898.00,0.0082
1897.00,0.0083
1896.00,0.0084
1895.00,0.0084
1894.00,0.0084
1893.00,0.0083
1892.00,0.0083
1891.00,0.0082
1890.00,0.0082
1889.00,0.0082
1888.00,0.0082
1887.00,0.0083
1886.00,0.0083
1885.00,0.0083
1884.00,0.0083
1883.00,0.0083
1882.00,0.0083
1881.00,0.0084
1880.00,0.0085
1879.00,0.0085
1878.00,0.0084
1877.00,0.0083
1876.00,0.0082
1875.00,0.0082
1874.00,0.0082
1873.00,0.0082
1872.00,0.0084
1871.00,0.0084
1870.00,0.0084
1869.00,0.0083
1868.00,0.0082
1867.00,0.0083
1866.00,0.0083
1865.00,0.0083
1864.00,0.0083
1863.00,0.0083
1862.00,0.0083
1861.00,0.0084
1860.00,0.0085
1859.00,0.0085
1858.00,0.0085
1857.00,0.0085
1856.00,0.0085
1855.00,0.0084
1854.00,0.0084
1853.00,0.0085
1852.00,0.0086
1851.00,0.0087
1850.00,0.0087
1849.00,0.0088
1848.00,0.0089
1847.00,0.0089
1846.00,0.0089
1845.00,0.0087
1844.00,0.0086
1843.00,0.0086
1842.00,0.0086
1841.00,0.0087
1840.00,0.0088
1839.00,0.0089
1838.00,0.0090
1837.00,0.0090
1836.00,0.0090
1835.00,0.0090
1834.00,0.0090
1833.00,0.0091
1832.00,0.0092
1831.00,0.0091
1830.00,0.0090
1829.00,0.0090
1828.00,0.0091
1827.00,0.0092
1826.00,0.0093
1825.00,0.0092
1824.00,0.0092
1823.00,0.0093
1822.00,0.0093
1821.00,0.0093
1820.00,0.0093
1819.00,0.0092
1818.00,0.0092
1817.00,0.0091
1816.00,0.0091
1815.00,0.0093
1814.00,0.0094
1813.00,0.0095
1812.00,0.0096
1811.00,0.0097
1810.00,0.0097
1809.00,0.0098
1808.00,0.0099
1807.00,0.0099
1806.00,0.0100
1805.00,0.0100
1804.00,0.0101
1803.00,0.0102
1802.00,0.0102
1801.00,0.0102
1800.00,0.0102
1799.00,0.0103
1798.00,0.0104
1797.00,0.0106
1796.00,0.0107
1795.00,0.0108
1794.00,0.0109
1793.00,0.0109
1792.00,0.0108
1791.00,0.0108
1790.00,0.0108
1789.00,0.0109
1788.00,0.0111
1787.00,0.0111
1786.00,0.0112
1785.00,0.0112
1784.00,0.0112
1783.00,0.0113
1782.00,0.0114
1781.00,0.0114
1780.00,0.0115
1779.00,0.0115
1778.00,0.0115
1777.00,0.0116
1776.00,0.0118
1775.00,0.0120
1774.00,0.0121
1773.00,0.0122
1772.00,0.0121
1771.00,0.0121
1770.00,0.0123
1769.00,0.0124
1768.00,0.0124
1767.00,0.0125
1766.00,0.0126
1765.00,0.0128
1764.00,0.0129
1763.00,0.0130
1762.00,0.0130
1761.00,0.0131
1760.00,0.0133
1759.00,0.0135
1758.00,0.0136
1757.00,0.0138
1756.00,0.0139
1755.00,0.0142
1754.00,0.0145
1753.00,0.0147
1752.00,0.0148
1751.00,0.0149
1750.00,0.0150
1749.00,0.0153
1748.00,0.0155
1747.00,0.0158
1746.00,0.0160
1745.00,0.0162
1744.00,0.0164
1743.00,0.0167
1742.00,0.0168
1741.00,0.0170
1740.00,0.0171
1739.00,0.0172
1738.00,0.0174
1737.00,0.0178
1736.00,0.0182
1735.00,0.0183
1734.00,0.0183
1733.00,0.0184
1732.00,0.0187
1731.00,0.0190
1730.00,0.0193
1729.00,0.0195
1728.00,0.0197
1727.00,0.0200
1726.00,0.0203
1725.00,0.0206
1724.00,0.0209
1723.00,0.0212
1722.00,0.0215
1721.00,0.0219
1720.00,0.0223
1719.00,0.0226
1718.00,0.0230
1717.00,0.0234
1716.00,0.0238
1715.00,0.0242
1714.00,0.0245
1713.00,0.0249
1712.00,0.0253
1711.00,0.0258
1710.00,0.0262
1709.00,0.0267
1708.00,0.0272
1707.00,0.0277
1706.00,0.0283
1705.00,0.0289
1704.00,0.0297
1703.00,0.0304
1702.00,0.0308
1701.00,0.0312
1700.00,0.0321
1699.00,0.0332
1698.00,0.0343
1697.00,0.0351
1696.00,0.0359
1695.00,0.0367
1694.00,0.0376
1693.00,0.0385
1692.00,0.0394
1691.00,0.0402
1690.00,0.0412
1689.00,0.0423
1688.00,0.0434
1687.00,0.0444
1686.00,0.0452
1685.00,0.0462
1684.00,0.0479
1683.00,0.0496
1682.00,0.0510
1681.00,0.0522
1680.00,0.0533
1679.00,0.0544
1678.00,0.0554
1677.00,0.0564
1676.00,0.0577
1675.00,0.0592
1674.00,0.0608
1673.00,0.0621
1672.00,0.0633
1671.00,0.0645
1670.00,0.0660
1669.00,0.0677
1668.00,0.0695
1667.00,0.0709
1666.00,0.0721
1665.00,0.0731
1664.00,0.0743
1663.00,0.0758
1662.00,0.0774
1661.00,0.0790
1660.00,0.0804
1659.00,0.0816
1658.00,0.0827
1657.00,0.0837
1656.00,0.0847
1655.00,0.0854
1654.00,0.0865
1653.00,0.0887
1652.00,0.0909
1651.00,0.0921
1650.00,0.0927
1649.00,0.0930
1648.00,0.0936
1647.00,0.0946
1646.00,0.0959
1645.00,0.0969
1644.00,0.0976
1643.00,0.0980
1642.00,0.0982
1641.00,0.0983
1640.00,0.0985
1639.00,0.0987
1638.00,0.0987
1637.00,0.0986
1636.00,0.0987
1635.00,0.0990
1634.00,0.0991
1633.00,0.0989
1632.00,0.0985
1631.00,0.0978
1630.00,0.0970
1629.00,0.0961
1628.00,0.0953
1627.00,0.0945
1626.00,0.0936
1625.00,0.0926
1624.00,0.0914
1623.00,0.0901
1622.00,0.0889
1621.00,0.0879
1620.00,0.0868
1619.00,0.0856
1618.00,0.0840
1617.00,0.0822
1616.00,0.0806
1615.00,0.0792
1614.00,0.0780
1613.00,0.0767
1612.00,0.0753
1611.00,0.0738
1610.00,0.0724
1609.00,0.0710
1608.00,0.0696
1607.00,0.0683
1606.00,0.0671
1605.00,0.0659
1604.00,0.0647
1603.00,0.0635
1602.00,0.0624
1601.00,0.0613
1600.00,0.0602
1599.00,0.0592
1598.00,0.0582
1597.00,0.0573
1596.00,0.0564
1595.00,0.0556
1594.00,0.0547
1593.00,0.0539
1592.00,0.0532
1591.00,0.0525
1590.00,0.0518
1589.00,0.0512
1588.00,0.0506
1587.00,0.0501
1586.00,0.0496
1585.00,0.0491
1584.00,0.0487
1583.00,0.0482
1582.00,0.0479
1581.00,0.0476
1580.00,0.0474
1579.00,0.0472
1578.00,0.0470
1577.00,0.0465
1576.00,0.0459
1575.00,0.0453
1574.00,0.0450
1573.00,0.0447
1572.00,0.0444
1571.00,0.0440
1570.00,0.0435
1569.00,0.0431
1568.00,0.0428
1567.00,0.0426
1566.00,0.0424
1565.00,0.0421
1564.00,0.0419
1563.00,0.0419
1562.00,0.0418
1561.00,0.0415
1560.00,0.0409
1559.00,0.0405
1558.00,0.0404
1557.00,0.0404
1556.00,0.0404
1555.00,0.0403
1554.00,0.0401
1553.00,0.0398
1552.00,0.0397
1551.00,0.0395
1550.00,0.0394
1549.00,0.0392
1548.00,0.0391
1547.00,0.0391
1546.00,0.0390
1545.00,0.0389
1544.00,0.0388
1543.00,0.0387
1542.00,0.0386
1541.00,0.0383
1540.00,0.0378
1539.00,0.0372
1538.00,0.0369
1537.00,0.0366
1536.00,0.0364
1535.00,0.0361
1534.00,0.0356
1533.00,0.0351
1532.00,0.0349
1531.00,0.0347
1530.00,0.0345
1529.00,0.0342
1528.00,0.0339
1527.00,0.0337
1526.00,0.0334
1525.00,0.0333
1524.00,0.0332
1523.00,0.0330
1522.00,0.0327
1521.00,0.0323
1520.00,0.0321
1519.00,0.0319
1518.00,0.0318
1517.00,0.0316
1516.00,0.0313
1515.00,0.0312
1514.00,0.0311
1513.00,0.0310
1512.00,0.0309
1511.00,0.0308
1510.00,0.0309
1509.00,0.0310
1508.00,0.0308
1507.00,0.0304
1506.00,0.0299
1505.00,0.0296
1504.00,0.0295
1503.00,0.0295
1502.00,0.0295
1501.00,0.0295
1500.00,0.0294
1499.00,0.0294
1498.00,0.0294
1497.00,0.0293
1496.00,0.0292
1495.00,0.0291
1494.00,0.0291
1493.00,0.0292
1492.00,0.0292
1491.00,0.0292
1490.00,0.0292
1489.00,0.0293
1488.00,0.0294
1487.00,0.0295
1486.00,0.0296
1485.00,0.0297
1484.00,0.0299
1483.00,0.0300
1482.00,0.0302
1481.00,0.0305
1480.00,0.0308
1479.00,0.0311
1478.00,0.0314
1477.00,0.0317
1476.00,0.0320
1475.00,0.0323
1474.00,0.0325
1473.00,0.0328
1472.00,0.0330
1471.00,0.0333
1470.00,0.0335
1469.00,0.0337
1468.00,0.0339
1467.00,0.0340
1466.00,0.0341
1465.00,0.0341
1464.00,0.0342
1463.00,0.0343
1462.00,0.0345
1461.00,0.0347
1460.00,0.0348
1459.00,0.0350
1458.00,0.0351
1457.00,0.0351
1456.00,0.0352
1455.00,0.0353
1454.00,0.0354
1453.00,0.0355
1452.00,0.0354
1451.00,0.0354
1450.00,0.0353
1449.00,0.0353
1448.00,0.0353
1447.00,0.0353
1446.00,0.0354
1445.00,0.0355
1444.00,0.0356
1443.00,0.0357
1442.00,0.0358
1441.00,0.0360
1440.00,0.0362
1439.00,0.0364
1438.00,0.0365
1437.00,0.0366
1436.00,0.0367
1435.00,0.0369
1434.00,0.0371
1433.00,0.0373
1432.00,0.0375
1431.00,0.0376
1430.00,0.0377
1429.00,0.0379
1428.00,0.0380
1427.00,0.0382
1426.00,0.0384
1425.00,0.0385
1424.00,0.0387
1423.00,0.0389
1422.00,0.0391
1421.00,0.0392
1420.00,0.0393
1419.00,0.0394
1418.00,0.0395
1417.00,0.0397
1416.00,0.0397
1415.00,0.0398
1414.00,0.0398
1413.00,0.0399
1412.00,0.0400
1411.00,0.0400
1410.00,0.0401
1409.00,0.0401
1408.00,0.0401
1407.00,0.0401
1406.00,0.0401
1405.00,0.0401
1404.00,0.0401
1403.00,0.0400
1402.00,0.0399
1401.00,0.0398
1400.00,0.0396
1399.00,0.0395
1398.00,0.0394
1397.00,0.0393
1396.00,0.0391
1395.00,0.0389
1394.00,0.0388
1393.00,0.0387
1392.00,0.0387
1391.00,0.0388
1390.00,0.0389
1389.00,0.0390
1388.00,0.0392
1387.00,0.0395
1386.00,0.0399
1385.00,0.0402
1384.00,0.0406
1383.00,0.0409
1382.00,0.0412
1381.00,0.0415
1380.00,0.0418
1379.00,0.0420
1378.00,0.0421
1377.00,0.0423
1376.00,0.0424
1375.00,0.0424
1374.00,0.0424
1373.00,0.0423
1372.00,0.0423
1371.00,0.0422
1370.00,0.0421
1369.00,0.0419
1368.00,0.0417
1367.00,0.0415
1366.00,0.0413
1365.00,0.0411
1364.00,0.0410
1363.00,0.0409
1362.00,0.0409
1361.00,0.0408
1360.00,0.0408
1359.00,0.0408
1358.00,0.0407
1357.00,0.0407
1356.00,0.0406
1355.00,0.0406
1354.00,0.0405
1353.00,0.0404
1352.00,0.0402
1351.00,0.0400
1350.00,0.0397
1349.00,0.0394
1348.00,0.0391
1347.00,0.0388
1346.00,0.0385
1345.00,0.0382
1344.00,0.0379
1343.00,0.0377
1342.00,0.0375
1341.00,0.0374
1340.00,0.0372
1339.00,0.0371
1338.00,0.0370
1337.00,0.0369
1336.00,0.0368
1335.00,0.0366
1334.00,0.0365
1333.00,0.0364
1332.00,0.0364
1331.00,0.0363
1330.00,0.0363
1329.00,0.0363
1328.00,0.0363
1327.00,0.0363
1326.00,0.0364
1325.00,0.0365
1324.00,0.0366
1323.00,0.0367
1322.00,0.0368
1321.00,0.0369
1320.00,0.0370
1319.00,0.0371
1318.00,0.0372
1317.00,0.0373
1316.00,0.0374
1315.00,0.0374
1314.00,0.0375
1313.00,0.0376
1312.00,0.0376
1311.00,0.0377
1310.00,0.0378
1309.00,0.0379
1308.00,0.0380
1307.00,0.0382
1306.00,0.0383
1305.00,0.0385
1304.00,0.0387
1303.00,0.0390
1302.00,0.0393
1301.00,0.0397
1300.00,0.0400
1299.00,0.0404
1298.00,0.0409
1297.00,0.0415
1296.00,0.0421
1295.00,0.0427
1294.00,0.0435
1293.00,0.0443
1292.00,0.0452
1291.00,0.0461
1290.00,0.0470
1289.00,0.0480
1288.00,0.0491
1287.00,0.0502
1286.00,0.0514
1285.00,0.0527
1284.00,0.0539
1283.00,0.0553
1282.00,0.0566
1281.00,0.0581
1280.00,0.0596
1279.00,0.0612
1278.00,0.0628
1277.00,0.0644
1276.00,0.0660
1275.00,0.0677
1274.00,0.0693
1273.00,0.0710
1272.00,0.0727
1271.00,0.0744
1270.00,0.0761
1269.00,0.0776
1268.00,0.0791
1267.00,0.0804
1266.00,0.0817
1265.00,0.0831
1264.00,0.0843
1263.00,0.0854
1262.00,0.0864
1261.00,0.0874
1260.00,0.0882
1259.00,0.0890
1258.00,0.0896
1257.00,0.0902
1256.00,0.0908
1255.00,0.0912
1254.00,0.0916
1253.00,0.0920
1252.00,0.0924
1251.00,0.0927
1250.00,0.0930
1249.00,0.0933
1248.00,0.0936
1247.00,0.0939
1246.00,0.0942
1245.00,0.0945
1244.00,0.0949
1243.00,0.0953
1242.00,0.0958
1241.00,0.0962
1240.00,0.0967
1239.00,0.0972
1238.00,0.0978
1237.00,0.0983
1236.00,0.0989
1235.00,0.0994
1234.00,0.0998
1233.00,0.1002
1232.00,0.1006
1231.00,0.1009
1230.00,0.1012
1229.00,0.1014
1228.00,0.1016
1227.00,0.1017
1226.00,0.1018
1225.00,0.1018
1224.00,0.1018
1223.00,0.1017
1222.00,0.1017
1221.00,0.1015
1220.00,0.1013
1219.00,0.1011
1218.00,0.1007
1217.00,0.1004
1216.00,0.1000
1215.00,0.0995
1214.00,0.0991
1213.00,0.0987
1212.00,0.0983
1211.00,0.0979
1210.00,0.0975
1209.00,0.0972
1208.00,0.0968
1207.00,0.0963
1206.00,0.0958
1205.00,0.0952
1204.00,0.0945
1203.00,0.0937
1202.00,0.0929
1201.00,0.0922
1200.00,0.0916
1199.00,0.0912
1198.00,0.0909
1197.00,0.0908
1196.00,0.0908
1195.00,0.0909
1194.00,0.0910
1193.00,0.0912
1192.00,0.0914
1191.00,0.0915
1190.00,0.0914
1189.00,0.0913
1188.00,0.0911
1187.00,0.0909
1186.00,0.0907
1185.00,0.0905
1184.00,0.0903
1183.00,0.0902
1182.00,0.0901
1181.00,0.0902
1180.00,0.0903
1179.00,0.0906
1178.00,0.0910
1177.00,0.0914
1176.00,0.0919
1175.00,0.0926
1174.00,0.0933
1173.00,0.0942
1172.00,0.0953
1171.00,0.0964
1170.00,0.0977
1169.00,0.0991
1168.00,0.1007
1167.00,0.1023
1166.00,0.1041
1165.00,0.1058
1164.00,0.1076
1163.00,0.1092
1162.00,0.1108
1161.00,0.1122
1160.00,0.1134
1159.00,0.1145
1158.00,0.1153
1157.00,0.1159
1156.00,0.1164
1155.00,0.1166
1154.00,0.1167
1153.00,0.1166
1152.00,0.1163
1151.00,0.1159
1150.00,0.1155
1149.00,0.1150
1148.00,0.1145
1147.00,0.1139
1146.00,0.1133
1145.00,0.1128
1144.00,0.1123
1143.00,0.1120
1142.00,0.1119
1141.00,0.1119
1140.00,0.1123
1139.00,0.1129
1138.00,0.1139
1137.00,0.1152
1136.00,0.1170
1135.00,0.1190
1134.00,0.1213
1133.00,0.1238
1132.00,0.1263
1131.00,0.1287
1130.00,0.1310
1129.00,0.1331
1128.00,0.1349
1127.00,0.1363
1126.00,0.1374
1125.00,0.1381
1124.00,0.1386
1123.00,0.1388
1122.00,0.1388
1121.00,0.1389
1120.00,0.1389
1119.00,0.1390
1118.00,0.1390
1117.00,0.1392
1116.00,0.1393
1115.00,0.1395
1114.00,0.1396
1113.00,0.1398
1112.00,0.1400
1111.00,0.1401
1110.00,0.1403
1109.00,0.1404
1108.00,0.1407
1107.00,0.1410
1106.00,0.1413
1105.00,0.1417
1104.00,0.1423
1103.00,0.1428
1102.00,0.1435
1101.00,0.1444
1100.00,0.1453
1099.00,0.1462
1098.00,0.1471
1097.00,0.1479
1096.00,0.1484
1095.00,0.1488
1094.00,0.1489
1093.00,0.1490
1092.00,0.1489
1091.00,0.1488
1090.00,0.1488
1089.00,0.1490
1088.00,0.1493
1087.00,0.1498
1086.00,0.1505
1085.00,0.1513
1084.00,0.1524
1083.00,0.1536
1082.00,0.1549
1081.00,0.1565
1080.00,0.1582
1079.00,0.1601
1078.00,0.1620
1077.00,0.1639
1076.00,0.1659
1075.00,0.1678
1074.00,0.1696
1073.00,0.1713
1072.00,0.1730
1071.00,0.1745
1070.00,0.1758
1069.00,0.1769
1068.00,0.1778
1067.00,0.1782
1066.00,0.1780
1065.00,0.1774
1064.00,0.1763
1063.00,0.1748
1062.00,0.1732
1061.00,0.1716
1060.00,0.1703
1059.00,0.1692
1058.00,0.1685
1057.00,0.1682
1056.00,0.1683
1055.00,0.1687
1054.00,0.1693
1053.00,0.1702
1052.00,0.1712
1051.00,0.1723
1050.00,0.1735
1049.00,0.1748
1048.00,0.1763
1047.00,0.1779
1046.00,0.1795
1045.00,0.1811
1044.00,0.1827
1043.00,0.1840
1042.00,0.1850
1041.00,0.1857
1040.00,0.1860
1039.00,0.1859
1038.00,0.1855
1037.00,0.1849
1036.00,0.1843
1035.00,0.1837
1034.00,0.1833
1033.00,0.1832
1032.00,0.1833
1031.00,0.1834
1030.00,0.1835
1029.00,0.1834
1028.00,0.1829
1027.00,0.1821
1026.00,0.1808
1025.00,0.1792
1024.00,0.1773
1023.00,0.1751
1022.00,0.1726
1021.00,0.1701
1020.00,0.1674
1019.00,0.1648
1018.00,0.1623
1017.00,0.1598
1016.00,0.1575
1015.00,0.1552
1014.00,0.1532
1013.00,0.1515
1012.00,0.1501
1011.00,0.1490
1010.00,0.1481
1009.00,0.1474
1008.00,0.1469
1007.00,0.1464
1006.00,0.1461
1005.00,0.1457
1004.00,0.1450
1003.00,0.1439
1002.00,0.1424
1001.00,0.1404
1000.00,0.1380
999.00,0.1354
998.00,0.1328
997.00,0.1302
996.00,0.1278
995.00,0.1257
994.00,0.1240
993.00,0.1226
992.00,0.1213
991.00,0.1200
990.00,0.1187
989.00,0.1172
988.00,0.1156
987.00,0.1139
986.00,0.1121
985.00,0.1103
984.00,0.1085
983.00,0.1069
982.00,0.1055
981.00,0.1042
980.00,0.1031
979.00,0.1022
978.00,0.1015
977.00,0.1009
976.00,0.1005
975.00,0.1002
974.00,0.1000
973.00,0.0998
972.00,0.0997
971.00,0.0995
970.00,0.0990
969.00,0.0982
968.00,0.0970
967.00,0.0954
966.00,0.0934
965.00,0.0912
964.00,0.0890
963.00,0.0869
962.00,0.0850
961.00,0.0834
960.00,0.0822
959.00,0.0812
958.00,0.0805
957.00,0.0799
956.00,0.0797
955.00,0.0797
954.00,0.0799
953.00,0.0803
952.00,0.0808
951.00,0.0814
950.00,0.0822
949.00,0.0832
948.00,0.0843
947.00,0.0856
946.00,0.0871
945.00,0.0888
944.00,0.0906
943.00,0.0927
942.00,0.0951
941.00,0.0977
940.00,0.1008
939.00,0.1041
938.00,0.1078
937.00,0.1116
936.00,0.1154
935.00,0.1190
934.00,0.1223
933.00,0.1253
932.00,0.1279
931.00,0.1301
930.00,0.1321
929.00,0.1337
928.00,0.1351
927.00,0.1363
926.00,0.1372
925.00,0.1379
924.00,0.1384
923.00,0.1386
922.00,0.1387
921.00,0.1386
920.00,0.1385
919.00,0.1383
918.00,0.1380
917.00,0.1375
916.00,0.1369
915.00,0.1362
914.00,0.1354
913.00,0.1346
912.00,0.1336
911.00,0.1326
910.00,0.1314
909.00,0.1301
908.00,0.1288
907.00,0.1276
906.00,0.1265
905.00,0.1255
904.00,0.1246
903.00,0.1238
902.00,0.1231
901.00,0.1224
900.00,0.1218
899.00,0.1213
898.00,0.1208
897.00,0.1203
896.00,0.1200
895.00,0.1196
894.00,0.1194
893.00,0.1191
892.00,0.1188
891.00,0.1185
890.00,0.1182
889.00,0.1177
888.00,0.1170
887.00,0.1160
886.00,0.1148
885.00,0.1133
884.00,0.1117
883.00,0.1099
882.00,0.1081
881.00,0.1063
880.00,0.1047
879.00,0.1034
878.00,0.1024
877.00,0.1017
876.00,0.1012
875.00,0.1009
874.00,0.1005
873.00,0.1001
872.00,0.0995
871.00,0.0987
870.00,0.0979
869.00,0.0971
868.00,0.0964
867.00,0.0959
866.00,0.0956
865.00,0.0955
864.00,0.0955
863.00,0.0957
862.00,0.0962
861.00,0.0970
860.00,0.0980
859.00,0.0992
858.00,0.1007
857.00,0.1025
856.00,0.1044
855.00,0.1065
854.00,0.1087
853.00,0.1110
852.00,0.1132
851.00,0.1155
850.00,0.1176
849.00,0.1195
848.00,0.1210
847.00,0.1221
846.00,0.1227
845.00,0.1229
844.00,0.1226
843.00,0.1219
842.00,0.1209
841.00,0.1196
840.00,0.1181
839.00,0.1164
838.00,0.1148
837.00,0.1133
836.00,0.1119
835.00,0.1106
834.00,0.1094
833.00,0.1085
832.00,0.1076
831.00,0.1067
830.00,0.1060
829.00,0.1054
828.00,0.1047
827.00,0.1040
826.00,0.1034
825.00,0.1030
824.00,0.1028
823.00,0.1027
822.00,0.1027
821.00,0.1028
820.00,0.1028
819.00,0.1028
818.00,0.1029
817.00,0.1030
816.00,0.1032
815.00,0.1035
814.00,0.1040
813.00,0.1044
812.00,0.1050
811.00,0.1056
810.00,0.1063
809.00,0.1070
808.00,0.1077
807.00,0.1082
806.00,0.1087
805.00,0.1093
804.00,0.1097
803.00,0.1101
802.00,0.1105
801.00,0.1109
800.00,0.1113
799.00,0.1116
798.00,0.1119
797.00,0.1120
796.00,0.1120
795.00,0.1120
794.00,0.1119
793.00,0.1118
792.00,0.1119
791.00,0.1119
790.00,0.1120
789.00,0.1121
788.00,0.1122
787.00,0.1124
786.00,0.1128
785.00,0.1132
784.00,0.1136
783.00,0.1141
782.00,0.1147
781.00,0.1153
780.00,0.1160
779.00,0.1168
778.00,0.1178
777.00,0.1188
776.00,0.1197
775.00,0.1205
774.00,0.1212
773.00,0.1218
772.00,0.1223
771.00,0.1225
770.00,0.1225
769.00,0.1224
768.00,0.1223
767.00,0.1223
766.00,0.1224
765.00,0.1226
764.00,0.1229
763.00,0.1232
762.00,0.1236
761.00,0.1240
760.00,0.1246
759.00,0.1251
758.00,0.1256
757.00,0.1262
756.00,0.1270
755.00,0.1280
754.00,0.1291
753.00,0.1304
752.00,0.1318
751.00,0.1333
750.00,0.1350
749.00,0.1367
748.00,0.1384
747.00,0.1399
746.00,0.1414
745.00,0.1429
744.00,0.1443
743.00,0.1454
742.00,0.1465
741.00,0.1476
740.00,0.1487
739.00,0.1499
738.00,0.1512
737.00,0.1523
736.00,0.1532
735.00,0.1540
734.00,0.1547
733.00,0.1555
732.00,0.1561
731.00,0.1567
730.00,0.1574
729.00,0.1581
728.00,0.1589
727.00,0.1598
726.00,0.1607
725.00,0.1614
724.00,0.1619
723.00,0.1621
722.00,0.1622
721.00,0.1622
720.00,0.1620
719.00,0.1618
718.00,0.1616
717.00,0.1615
716.00,0.1615
715.00,0.1618
714.00,0.1623
713.00,0.1631
712.00,0.1639
711.00,0.1650
710.00,0.1663
709.00,0.1677
708.00,0.1692
707.00,0.1705
706.00,0.1716
705.00,0.1726
704.00,0.1734
703.00,0.1741
702.00,0.1746
701.00,0.1751
700.00,0.1753
699.00,0.1753
698.00,0.1751
697.00,0.1747
696.00,0.1741
695.00,0.1734
694.00,0.1728
693.00,0.1721
692.00,0.1714
691.00,0.1708
690.00,0.1703
689.00,0.1700
688.00,0.1696
687.00,0.1692
686.00,0.1688
685.00,0.1685
684.00,0.1684
683.00,0.1683
682.00,0.1682
681.00,0.1682
680.00,0.1683
679.00,0.1684
678.00,0.1687
677.00,0.1691
676.00,0.1696
675.00,0.1702
674.00,0.1709
673.00,0.1715
672.00,0.1718
671.00,0.1719
670.00,0.1718
669.00,0.1722
668.00,0.1732
667.00,0.1745
666.00,0.1751
665.00,0.1752
664.00,0.1751
663.00,0.1751
662.00,0.1753
661.00,0.1757
660.00,0.1761
659.00,0.1764
658.00,0.1766
657.00,0.1768
656.00,0.1769
655.00,0.1771
654.00,0.1774
653.00,0.1777
652.00,0.1781
651.00,0.1785
650.00,0.1788
649.00,0.1791
648.00,0.1794
647.00,0.1798
646.00,0.1801
645.00,0.1805
644.00,0.1809
643.00,0.1813
642.00,0.1819
641.00,0.1826
640.00,0.1833
639.00,0.1843
638.00,0.1852
637.00,0.1861
636.00,0.1870
635.00,0.1879
634.00,0.1888
633.00,0.1898
632.00,0.1909
631.00,0.1923
630.00,0.1941
629.00,0.1962
628.00,0.1984
627.00,0.2007
626.00,0.2033
625.00,0.2059
624.00,0.2084
623.00,0.2108
622.00,0.2130
621.00,0.2152
620.00,0.2173
619.00,0.2194
618.00,0.2213
617.00,0.2230
616.00,0.2243
615.00,0.2251
614.00,0.2256
613.00,0.2258
612.00,0.2262
611.00,0.2266
610.00,0.2272
609.00,0.2278
608.00,0.2284
607.00,0.2290
606.00,0.2295
605.00,0.2300
604.00,0.2306
603.00,0.2312
602.00,0.2318
601.00,0.2324
600.00,0.2331
599.00,0.2337
598.00,0.2342
597.00,0.2347
596.00,0.2351
595.00,0.2358
594.00,0.2367
593.00,0.2378
592.00,0.2391
591.00,0.2406
590.00,0.2421
589.00,0.2438
588.00,0.2456
587.00,0.2474
586.00,0.2493
585.00,0.2510
584.00,0.2526
583.00,0.2540
582.00,0.2554
581.00,0.2569
580.00,0.2584
579.00,0.2600
578.00,0.2616
577.00,0.2633
576.00,0.2651
575.00,0.2666
574.00,0.2677
573.00,0.2685
572.00,0.2693
571.00,0.2704
570.00,0.2718
569.00,0.2733
568.00,0.2749
567.00,0.2764
566.00,0.2777
565.00,0.2789
564.00,0.2801
563.00,0.2813
562.00,0.2824
561.00,0.2835
560.00,0.2845
559.00,0.2851
558.00,0.2854
557.00,0.2853
556.00,0.2851
555.00,0.2850
554.00,0.2848
553.00,0.2847
552.00,0.2847
551.00,0.2846
550.00,0.2845
549.00,0.2845
548.00,0.2846
547.00,0.2848
546.00,0.2850
545.00,0.2849
544.00,0.2846
543.00,0.2843
542.00,0.2841
541.00,0.2841
540.00,0.2839
539.00,0.2837
538.00,0.2832
537.00,0.2827
536.00,0.2819
535.00,0.2810
534.00,0.2801
533.00,0.2795
532.00,0.2791
531.00,0.2789
530.00,0.2787
529.00,0.2783
528.00,0.2777
527.00,0.2769
526.00,0.2762
525.00,0.2760
524.00,0.2763
523.00,0.2769
522.00,0.2772
521.00,0.2771
520.00,0.2767
519.00,0.2764
518.00,0.2764
517.00,0.2770
516.00,0.2777
515.00,0.2783
514.00,0.2784
513.00,0.2779
512.00,0.2770
511.00,0.2761
510.00,0.2753
509.00,0.2751
508.00,0.2754
507.00,0.2762
506.00,0.2770
505.00,0.2774
504.00,0.2774
503.00,0.2773
502.00,0.2775
501.00,0.2780
500.00,0.2786
499.00,0.2794
498.00,0.2805
497.00,0.2817
496.00,0.2827
495.00,0.2833
494.00,0.2835
493.00,0.2837
492.00,0.2840
491.00,0.2845
490.00,0.2851
489.00,0.2858
488.00,0.2863
487.00,0.2864
486.00,0.2863
485.00,0.2859
484.00,0.2853
483.00,0.2848
482.00,0.2848
481.00,0.2853
480.00,0.2859
479.00,0.2861
478.00,0.2858
477.00,0.2853
476.00,0.2848
475.00,0.2847
474.00,0.2848
473.00,0.2852
472.00,0.2855
471.00,0.2858
470.00,0.2861
469.00,0.2865
468.00,0.2870
467.00,0.2878
466.00,0.2888
465.00,0.2896
464.00,0.2900
463.00,0.2895
462.00,0.2882
461.00,0.2866
460.00,0.2855
459.00,0.2852
458.00,0.2861
457.00,0.2877
456.00,0.2885
455.00,0.2887
454.00,0.2883
453.00,0.2882
452.00,0.2887
451.00,0.2900
450.00,0.2915
