Created as New Dataset,Sample 001 By Administrator Date Friday, May 30 2025
cm-1,A
4000.00,0.0042
3999.00,0.0042
3998.00,0.0043
3997.00,0.0043
3996.00,0.0043
3995.00,0.0043
3994.00,0.0043
3993.00,0.0043
3992.00,0.0043
3991.00,0.0043
3990.00,0.0042
3989.00,0.0042
3988.00,0.0042
3987.00,0.0042
3986.00,0.0042
3985.00,0.0042
3984.00,0.0043
3983.00,0.0043
3982.00,0.0044
3981.00,0.0044
3980.00,0.0044
3979.00,0.0044
3978.00,0.0044
3977.00,0.0044
3976.00,0.0044
3975.00,0.0044
3974.00,0.0044
3973.00,0.0044
3972.00,0.0044
3971.00,0.0044
3970.00,0.0044
3969.00,0.0044
3968.00,0.0044
3967.00,0.0044
3966.00,0.0045
3965.00,0.0045
3964.00,0.0045
3963.00,0.0044
3962.00,0.0044
3961.00,0.0044
3960.00,0.0044
3959.00,0.0045
3958.00,0.0045
3957.00,0.0045
3956.00,0.0044
3955.00,0.0044
3954.00,0.0045
3953.00,0.0045
3952.00,0.0046
3951.00,0.0046
3950.00,0.0046
3949.00,0.0046
3948.00,0.0045
3947.00,0.0045
3946.00,0.0045
3945.00,0.0045
3944.00,0.0045
3943.00,0.0045
3942.00,0.0045
3941.00,0.0045
3940.00,0.0045
3939.00,0.0045
3938.00,0.0045
3937.00,0.0046
3936.00,0.0046
3935.00,0.0047
3934.00,0.0047
3933.00,0.0047
3932.00,0.0046
3931.00,0.0046
3930.00,0.0046
3929.00,0.0046
3928.00,0.0046
3927.00,0.0046
3926.00,0.0045
3925.00,0.0045
3924.00,0.0045
3923.00,0.0045
3922.00,0.0045
3921.00,0.0045
3920.00,0.0046
3919.00,0.0046
3918.00,0.0047
3917.00,0.0046
3916.00,0.0046
3915.00,0.0045
3914.00,0.0045
3913.00,0.0044
3912.00,0.0044
3911.00,0.0045
3910.00,0.0046
3909.00,0.0047
3908.00,0.0049
3907.00,0.0050
3906.00,0.0050
3905.00,0.0051
3904.00,0.0051
3903.00,0.0051
3902.00,0.0050
3901.00,0.0049
3900.00,0.0048
3899.00,0.0047
3898.00,0.0047
3897.00,0.0047
3896.00,0.0047
3895.00,0.0048
3894.00,0.0048
3893.00,0.0048
3892.00,0.0048
3891.00,0.0047
3890.00,0.0047
3889.00,0.0048
3888.00,0.0048
3887.00,0.0048
3886.00,0.0048
3885.00,0.0049
3884.00,0.0050
3883.00,0.0050
3882.00,0.0049
3881.00,0.0047
3880.00,0.0046
3879.00,0.0046
3878.00,0.0047
3877.00,0.0048
3876.00,0.0049
3875.00,0.0049
3874.00,0.0050
3873.00,0.0051
3872.00,0.0052
3871.00,0.0051
3870.00,0.0050
3869.00,0.0050
3868.00,0.0050
3867.00,0.0050
3866.00,0.0049
3865.00,0.0048
3864.00,0.0048
3863.00,0.0048
3862.00,0.0048
3861.00,0.0048
3860.00,0.0048
3859.00,0.0049
3858.00,0.0051
3857.00,0.0054
3856.00,0.0056
3855.00,0.0057
3854.00,0.0056
3853.00,0.0055
3852.00,0.0054
3851.00,0.0053
3850.00,0.0050
3849.00,0.0048
3848.00,0.0047
3847.00,0.0047
3846.00,0.0048
3845.00,0.0049
3844.00,0.0049
3843.00,0.0050
3842.00,0.0051
3841.00,0.0052
3840.00,0.0053
3839.00,0.0053
3838.00,0.0053
3837.00,0.0053
3836.00,0.0053
3835.00,0.0053
3834.00,0.0052
3833.00,0.0051
3832.00,0.0050
3831.00,0.0050
3830.00,0.0050
3829.00,0.0050
3828.00,0.0049
3827.00,0.0049
3826.00,0.0050
3825.00,0.0052
3824.00,0.0053
3823.00,0.0053
3822.00,0.0053
3821.00,0.0053
3820.00,0.0055
3819.00,0.0056
3818.00,0.0056
3817.00,0.0054
3816.00,0.0053
3815.00,0.0052
3814.00,0.0051
3813.00,0.0050
3812.00,0.0050
3811.00,0.0050
3810.00,0.0050
3809.00,0.0051
3808.00,0.0052
3807.00,0.0052
3806.00,0.0054
3805.00,0.0056
3804.00,0.0057
3803.00,0.0056
3802.00,0.0055
3801.00,0.0054
3800.00,0.0055
3799.00,0.0055
3798.00,0.0053
3797.00,0.0051
3796.00,0.0050
3795.00,0.0050
3794.00,0.0050
3793.00,0.0050
3792.00,0.0049
3791.00,0.0049
3790.00,0.0050
3789.00,0.0050
3788.00,0.0051
3787.00,0.0052
3786.00,0.0052
3785.00,0.0051
3784.00,0.0051
3783.00,0.0052
3782.00,0.0052
3781.00,0.0052
3780.00,0.0052
3779.00,0.0052
3778.00,0.0052
3777.00,0.0052
3776.00,0.0052
3775.00,0.0053
3774.00,0.0053
3773.00,0.0054
3772.00,0.0055
3771.00,0.0054
3770.00,0.0055
3769.00,0.0055
3768.00,0.0056
3767.00,0.0056
3766.00,0.0055
3765.00,0.0054
3764.00,0.0055
3763.00,0.0056
3762.00,0.0057
3761.00,0.0058
3760.00,0.0058
3759.00,0.0058
3758.00,0.0059
3757.00,0.0059
3756.00,0.0060
3755.00,0.0062
3754.00,0.0063
3753.00,0.0065
3752.00,0.0066
3751.00,0.0066
3750.00,0.0067
3749.00,0.0068
3748.00,0.0069
3747.00,0.0070
3746.00,0.0069
3745.00,0.0067
3744.00,0.0066
3743.00,0.0067
3742.00,0.0067
3741.00,0.0066
3740.00,0.0065
3739.00,0.0065
3738.00,0.0067
3737.00,0.0067
3736.00,0.0067
3735.00,0.0066
3734.00,0.0065
3733.00,0.0064
3732.00,0.0064
3731.00,0.0065
3730.00,0.0066
3729.00,0.0066
3728.00,0.0066
3727.00,0.0065
3726.00,0.0065
3725.00,0.0065
3724.00,0.0066
3723.00,0.0066
3722.00,0.0066
3721.00,0.0066
3720.00,0.0066
3719.00,0.0067
3718.00,0.0068
3717.00,0.0069
3716.00,0.0071
3715.00,0.0072
3714.00,0.0073
3713.00,0.0074
3712.00,0.0075
3711.00,0.0075
3710.00,0.0075
3709.00,0.0075
3708.00,0.0074
3707.00,0.0074
3706.00,0.0074
3705.00,0.0075
3704.00,0.0077
3703.00,0.0078
3702.00,0.0079
3701.00,0.0080
3700.00,0.0081
3699.00,0.0082
3698.00,0.0082
3697.00,0.0083
3696.00,0.0085
3695.00,0.0087
3694.00,0.0089
3693.00,0.0091
3692.00,0.0093
3691.00,0.0095
3690.00,0.0096
3689.00,0.0097
3688.00,0.0098
3687.00,0.0100
3686.00,0.0101
3685.00,0.0103
3684.00,0.0104
3683.00,0.0106
3682.00,0.0109
3681.00,0.0112
3680.00,0.0115
3679.00,0.0118
3678.00,0.0121
3677.00,0.0124
3676.00,0.0126
3675.00,0.0130
3674.00,0.0134
3673.00,0.0137
3672.00,0.0139
3671.00,0.0140
3670.00,0.0142
3669.00,0.0145
3668.00,0.0148
3667.00,0.0152
3666.00,0.0154
3665.00,0.0157
3664.00,0.0160
3663.00,0.0163
3662.00,0.0167
3661.00,0.0170
3660.00,0.0175
3659.00,0.0180
3658.00,0.0185
3657.00,0.0190
3656.00,0.0196
3655.00,0.0202
3654.00,0.0207
3653.00,0.0212
3652.00,0.0217
3651.00,0.0222
3650.00,0.0227
3649.00,0.0233
3648.00,0.0239
3647.00,0.0243
3646.00,0.0248
3645.00,0.0252
3644.00,0.0256
3643.00,0.0260
3642.00,0.0265
3641.00,0.0270
3640.00,0.0275
3639.00,0.0280
3638.00,0.0286
3637.00,0.0292
3636.00,0.0298
3635.00,0.0305
3634.00,0.0311
3633.00,0.0318
3632.00,0.0324
3631.00,0.0330
3630.00,0.0337
3629.00,0.0344
3628.00,0.0352
3627.00,0.0358
3626.00,0.0363
3625.00,0.0367
3624.00,0.0372
3623.00,0.0376
3622.00,0.0382
3621.00,0.0388
3620.00,0.0394
3619.00,0.0402
3618.00,0.0409
3617.00,0.0416
3616.00,0.0422
3615.00,0.0427
3614.00,0.0432
3613.00,0.0438
3612.00,0.0445
3611.00,0.0451
3610.00,0.0457
3609.00,0.0464
3608.00,0.0470
3607.00,0.0476
3606.00,0.0482
3605.00,0.0487
3604.00,0.0493
3603.00,0.0498
3602.00,0.0504
3601.00,0.0509
3600.00,0.0514
3599.00,0.0520
3598.00,0.0525
3597.00,0.0530
3596.00,0.0536
3595.00,0.0542
3594.00,0.0548
3593.00,0.0555
3592.00,0.0561
3591.00,0.0566
3590.00,0.0571
3589.00,0.0576
3588.00,0.0583
3587.00,0.0590
3586.00,0.0597
3585.00,0.0603
3584.00,0.0608
3583.00,0.0613
3582.00,0.0618
3581.00,0.0623
3580.00,0.0628
3579.00,0.0634
3578.00,0.0639
3577.00,0.0645
3576.00,0.0650
3575.00,0.0656
3574.00,0.0662
3573.00,0.0667
3572.00,0.0673
3571.00,0.0678
3570.00,0.0683
3569.00,0.0688
3568.00,0.0693
3567.00,0.0700
3566.00,0.0707
3565.00,0.0713
3564.00,0.0719
3563.00,0.0724
3562.00,0.0730
3561.00,0.0735
3560.00,0.0740
3559.00,0.0745
3558.00,0.0750
3557.00,0.0755
3556.00,0.0760
3555.00,0.0765
3554.00,0.0770
3553.00,0.0776
3552.00,0.0781
3551.00,0.0787
3550.00,0.0792
3549.00,0.0797
3548.00,0.0803
3547.00,0.0808
3546.00,0.0813
3545.00,0.0819
3544.00,0.0825
3543.00,0.0830
3542.00,0.0836
3541.00,0.0840
3540.00,0.0845
3539.00,0.0850
3538.00,0.0855
3537.00,0.0861
3536.00,0.0866
3535.00,0.0871
3534.00,0.0876
3533.00,0.0881
3532.00,0.0886
3531.00,0.0891
3530.00,0.0896
3529.00,0.0901
3528.00,0.0907
3527.00,0.0912
3526.00,0.0918
3525.00,0.0923
3524.00,0.0928
3523.00,0.0933
3522.00,0.0939
3521.00,0.0943
3520.00,0.0948
3519.00,0.0953
3518.00,0.0958
3517.00,0.0963
3516.00,0.0969
3515.00,0.0974
3514.00,0.0979
3513.00,0.0983
3512.00,0.0988
3511.00,0.0992
3510.00,0.0997
3509.00,0.1003
3508.00,0.1008
3507.00,0.1014
3506.00,0.1019
3505.00,0.1024
3504.00,0.1029
3503.00,0.1034
3502.00,0.1038
3501.00,0.1043
3500.00,0.1048
3499.00,0.1053
3498.00,0.1058
3497.00,0.1063
3496.00,0.1068
3495.00,0.1073
3494.00,0.1078
3493.00,0.1082
3492.00,0.1087
3491.00,0.1092
3490.00,0.1097
3489.00,0.1102
3488.00,0.1107
3487.00,0.1112
3486.00,0.1116
3485.00,0.1121
3484.00,0.1125
3483.00,0.1130
3482.00,0.1135
3481.00,0.1139
3480.00,0.1144
3479.00,0.1148
3478.00,0.1152
3477.00,0.1156
3476.00,0.1160
3475.00,0.1164
3474.00,0.1169
3473.00,0.1174
3472.00,0.1179
3471.00,0.1184
3470.00,0.1190
3469.00,0.1194
3468.00,0.1198
3467.00,0.1202
3466.00,0.1205
3465.00,0.1209
3464.00,0.1212
3463.00,0.1217
3462.00,0.1221
3461.00,0.1226
3460.00,0.1231
3459.00,0.1235
3458.00,0.1238
3457.00,0.1241
3456.00,0.1245
3455.00,0.1249
3454.00,0.1252
3453.00,0.1256
3452.00,0.1259
3451.00,0.1263
3450.00,0.1266
3449.00,0.1270
3448.00,0.1273
3447.00,0.1277
3446.00,0.1281
3445.00,0.1284
3444.00,0.1288
3443.00,0.1291
3442.00,0.1295
3441.00,0.1299
3440.00,0.1303
3439.00,0.1306
3438.00,0.1310
3437.00,0.1314
3436.00,0.1317
3435.00,0.1320
3434.00,0.1323
3433.00,0.1326
3432.00,0.1328
3431.00,0.1331
3430.00,0.1333
3429.00,0.1335
3428.00,0.1337
3427.00,0.1339
3426.00,0.1341
3425.00,0.1343
3424.00,0.1346
3423.00,0.1348
3422.00,0.1350
3421.00,0.1353
3420.00,0.1356
3419.00,0.1358
3418.00,0.1361
3417.00,0.1363
3416.00,0.1365
3415.00,0.1367
3414.00,0.1369
3413.00,0.1371
3412.00,0.1373
3411.00,0.1375
3410.00,0.1376
3409.00,0.1377
3408.00,0.1378
3407.00,0.1379
3406.00,0.1379
3405.00,0.1380
3404.00,0.1382
3403.00,0.1383
3402.00,0.1385
3401.00,0.1385
3400.00,0.1386
3399.00,0.1386
3398.00,0.1385
3397.00,0.1386
3396.00,0.1386
3395.00,0.1387
3394.00,0.1388
3393.00,0.1389
3392.00,0.1389
3391.00,0.1389
3390.00,0.1388
3389.00,0.1387
3388.00,0.1386
3387.00,0.1386
3386.00,0.1385
3385.00,0.1385
3384.00,0.1385
3383.00,0.1384
3382.00,0.1384
3381.00,0.1383
3380.00,0.1382
3379.00,0.1381
3378.00,0.1379
3377.00,0.1378
3376.00,0.1376
3375.00,0.1375
3374.00,0.1374
3373.00,0.1374
3372.00,0.1373
3371.00,0.1372
3370.00,0.1370
3369.00,0.1368
3368.00,0.1366
3367.00,0.1364
3366.00,0.1361
3365.00,0.1359
3364.00,0.1356
3363.00,0.1354
3362.00,0.1352
3361.00,0.1349
3360.00,0.1347
3359.00,0.1344
3358.00,0.1342
3357.00,0.1339
3356.00,0.1336
3355.00,0.1334
3354.00,0.1332
3353.00,0.1330
3352.00,0.1327
3351.00,0.1325
3350.00,0.1322
3349.00,0.1319
3348.00,0.1316
3347.00,0.1313
3346.00,0.1310
3345.00,0.1307
3344.00,0.1304
3343.00,0.1300
3342.00,0.1297
3341.00,0.1293
3340.00,0.1290
3339.00,0.1286
3338.00,0.1283
3337.00,0.1280
3336.00,0.1277
3335.00,0.1274
3334.00,0.1270
3333.00,0.1266
3332.00,0.1263
3331.00,0.1260
3330.00,0.1257
3329.00,0.1254
3328.00,0.1250
3327.00,0.1247
3326.00,0.1244
3325.00,0.1240
3324.00,0.1236
3323.00,0.1233
3322.00,0.1229
3321.00,0.1226
3320.00,0.1223
3319.00,0.1220
3318.00,0.1216
3317.00,0.1213
3316.00,0.1209
3315.00,0.1206
3314.00,0.1202
3313.00,0.1199
3312.00,0.1196
3311.00,0.1193
3310.00,0.1190
3309.00,0.1187
3308.00,0.1184
3307.00,0.1181
3306.00,0.1178
3305.00,0.1175
3304.00,0.1172
3303.00,0.1169
3302.00,0.1165
3301.00,0.1162
3300.00,0.1159
3299.00,0.1155
3298.00,0.1152
3297.00,0.1149
3296.00,0.1147
3295.00,0.1144
3294.00,0.1141
3293.00,0.1138
3292.00,0.1135
3291.00,0.1132
3290.00,0.1129
3289.00,0.1126
3288.00,0.1123
3287.00,0.1120
3286.00,0.1117
3285.00,0.1114
3284.00,0.1111
3283.00,0.1108
3282.00,0.1105
3281.00,0.1103
3280.00,0.1100
3279.00,0.1097
3278.00,0.1094
3277.00,0.1092
3276.00,0.1089
3275.00,0.1086
3274.00,0.1083
3273.00,0.1080
3272.00,0.1077
3271.00,0.1074
3270.00,0.1071
3269.00,0.1069
3268.00,0.1066
3267.00,0.1063
3266.00,0.1060
3265.00,0.1057
3264.00,0.1054
3263.00,0.1051
3262.00,0.1047
3261.00,0.1044
3260.00,0.1041
3259.00,0.1037
3258.00,0.1034
3257.00,0.1030
3256.00,0.1027
3255.00,0.1023
3254.00,0.1019
3253.00,0.1015
3252.00,0.1012
3251.00,0.1009
3250.00,0.1006
3249.00,0.1003
3248.00,0.1000
3247.00,0.0997
3246.00,0.0994
3245.00,0.0990
3244.00,0.0986
3243.00,0.0982
3242.00,0.0978
3241.00,0.0974
3240.00,0.0970
3239.00,0.0966
3238.00,0.0962
3237.00,0.0958
3236.00,0.0954
3235.00,0.0950
3234.00,0.0946
3233.00,0.0942
3232.00,0.0938
3231.00,0.0933
3230.00,0.0929
3229.00,0.0924
3228.00,0.0920
3227.00,0.0916
3226.00,0.0912
3225.00,0.0908
3224.00,0.0904
3223.00,0.0899
3222.00,0.0893
3221.00,0.0889
3220.00,0.0884
3219.00,0.0880
3218.00,0.0875
3217.00,0.0871
3216.00,0.0866
3215.00,0.0861
3214.00,0.0856
3213.00,0.0852
3212.00,0.0847
3211.00,0.0842
3210.00,0.0837
3209.00,0.0832
3208.00,0.0827
3207.00,0.0822
3206.00,0.0817
3205.00,0.0812
3204.00,0.0807
3203.00,0.0802
3202.00,0.0797
3201.00,0.0792
3200.00,0.0786
3199.00,0.0781
3198.00,0.0776
3197.00,0.0771
3196.00,0.0767
3195.00,0.0762
3194.00,0.0757
3193.00,0.0752
3192.00,0.0747
3191.00,0.0742
3190.00,0.0737
3189.00,0.0733
3188.00,0.0729
3187.00,0.0724
3186.00,0.0719
3185.00,0.0714
3184.00,0.0709
3183.00,0.0703
3182.00,0.0698
3181.00,0.0692
3180.00,0.0688
3179.00,0.0683
3178.00,0.0679
3177.00,0.0675
3176.00,0.0670
3175.00,0.0665
3174.00,0.0660
3173.00,0.0656
3172.00,0.0651
3171.00,0.0647
3170.00,0.0642
3169.00,0.0637
3168.00,0.0633
3167.00,0.0628
3166.00,0.0623
3165.00,0.0618
3164.00,0.0614
3163.00,0.0609
3162.00,0.0605
3161.00,0.0600
3160.00,0.0596
3159.00,0.0591
3158.00,0.0587
3157.00,0.0583
3156.00,0.0579
3155.00,0.0575
3154.00,0.0570
3153.00,0.0566
3152.00,0.0561
3151.00,0.0557
3150.00,0.0552
3149.00,0.0548
3148.00,0.0544
3147.00,0.0540
3146.00,0.0536
3145.00,0.0532
3144.00,0.0528
3143.00,0.0524
3142.00,0.0520
3141.00,0.0516
3140.00,0.0512
3139.00,0.0508
3138.00,0.0505
3137.00,0.0501
3136.00,0.0498
3135.00,0.0494
3134.00,0.0491
3133.00,0.0487
3132.00,0.0484
3131.00,0.0480
3130.00,0.0477
3129.00,0.0473
3128.00,0.0470
3127.00,0.0467
3126.00,0.0463
3125.00,0.0460
3124.00,0.0457
3123.00,0.0453
3122.00,0.0450
3121.00,0.0447
3120.00,0.0443
3119.00,0.0440
3118.00,0.0436
3117.00,0.0432
3116.00,0.0429
3115.00,0.0425
3114.00,0.0422
3113.00,0.0419
3112.00,0.0416
3111.00,0.0413
3110.00,0.0410
3109.00,0.0407
3108.00,0.0404
3107.00,0.0401
3106.00,0.0399
3105.00,0.0396
3104.00,0.0393
3103.00,0.0390
3102.00,0.0387
3101.00,0.0385
3100.00,0.0382
3099.00,0.0379
3098.00,0.0376
3097.00,0.0373
3096.00,0.0371
3095.00,0.0368
3094.00,0.0366
3093.00,0.0363
3092.00,0.0360
3091.00,0.0358
3090.00,0.0355
3089.00,0.0353
3088.00,0.0350
3087.00,0.0348
3086.00,0.0346
3085.00,0.0344
3084.00,0.0342
3083.00,0.0340
3082.00,0.0337
3081.00,0.0335
3080.00,0.0332
3079.00,0.0330
3078.00,0.0327
3077.00,0.0325
3076.00,0.0322
3075.00,0.0320
3074.00,0.0318
3073.00,0.0316
3072.00,0.0314
3071.00,0.0312
3070.00,0.0310
3069.00,0.0308
3068.00,0.0306
3067.00,0.0304
3066.00,0.0301
3065.00,0.0299
3064.00,0.0297
3063.00,0.0296
3062.00,0.0294
3061.00,0.0292
3060.00,0.0290
3059.00,0.0288
3058.00,0.0286
3057.00,0.0284
3056.00,0.0282
3055.00,0.0280
3054.00,0.0277
3053.00,0.0275
3052.00,0.0273
3051.00,0.0271
3050.00,0.0270
3049.00,0.0268
3048.00,0.0267
3047.00,0.0265
3046.00,0.0263
3045.00,0.0261
3044.00,0.0259
3043.00,0.0258
3042.00,0.0257
3041.00,0.0256
3040.00,0.0254
3039.00,0.0253
3038.00,0.0251
3037.00,0.0250
3036.00,0.0249
3035.00,0.0247
3034.00,0.0246
3033.00,0.0244
3032.00,0.0243
3031.00,0.0242
3030.00,0.0240
3029.00,0.0239
3028.00,0.0237
3027.00,0.0235
3026.00,0.0233
3025.00,0.0232
3024.00,0.0230
3023.00,0.0229
3022.00,0.0228
3021.00,0.0227
3020.00,0.0226
3019.00,0.0225
3018.00,0.0224
3017.00,0.0223
3016.00,0.0221
3015.00,0.0220
3014.00,0.0219
3013.00,0.0218
3012.00,0.0218
3011.00,0.0217
3010.00,0.0216
3009.00,0.0215
3008.00,0.0215
3007.00,0.0214
3006.00,0.0213
3005.00,0.0212
3004.00,0.0211
3003.00,0.0210
3002.00,0.0210
3001.00,0.0209
3000.00,0.0209
2999.00,0.0209
2998.00,0.0209
2997.00,0.0208
2996.00,0.0208
2995.00,0.0207
2994.00,0.0207
2993.00,0.0207
2992.00,0.0206
2991.00,0.0206
2990.00,0.0206
2989.00,0.0205
2988.00,0.0205
2987.00,0.0205
2986.00,0.0205
2985.00,0.0205
2984.00,0.0205
2983.00,0.0205
2982.00,0.0204
2981.00,0.0204
2980.00,0.0204
2979.00,0.0204
2978.00,0.0205
2977.00,0.0205
2976.00,0.0206
2975.00,0.0206
2974.00,0.0205
2973.00,0.0205
2972.00,0.0205
2971.00,0.0206
2970.00,0.0206
2969.00,0.0206
2968.00,0.0206
2967.00,0.0206
2966.00,0.0206
2965.00,0.0206
2964.00,0.0206
2963.00,0.0205
2962.00,0.0205
2961.00,0.0204
2960.00,0.0203
2959.00,0.0202
2958.00,0.0201
2957.00,0.0201
2956.00,0.0201
2955.00,0.0201
2954.00,0.0200
2953.00,0.0200
2952.00,0.0199
2951.00,0.0198
2950.00,0.0198
2949.00,0.0198
2948.00,0.0197
2947.00,0.0197
2946.00,0.0197
2945.00,0.0197
2944.00,0.0197
2943.00,0.0197
2942.00,0.0196
2941.00,0.0196
2940.00,0.0196
2939.00,0.0195
2938.00,0.0195
2937.00,0.0195
2936.00,0.0195
2935.00,0.0195
2934.00,0.0194
2933.00,0.0194
2932.00,0.0194
2931.00,0.0194
2930.00,0.0194
2929.00,0.0194
2928.00,0.0195
2927.00,0.0196
2926.00,0.0196
2925.00,0.0197
2924.00,0.0197
2923.00,0.0197
2922.00,0.0197
2921.00,0.0197
2920.00,0.0197
2919.00,0.0196
2918.00,0.0195
2917.00,0.0193
2916.00,0.0192
2915.00,0.0191
2914.00,0.0190
2913.00,0.0188
2912.00,0.0186
2911.00,0.0185
2910.00,0.0184
2909.00,0.0183
2908.00,0.0181
2907.00,0.0180
2906.00,0.0180
2905.00,0.0179
2904.00,0.0178
2903.00,0.0177
2902.00,0.0175
2901.00,0.0174
2900.00,0.0173
2899.00,0.0171
2898.00,0.0170
2897.00,0.0169
2896.00,0.0168
2895.00,0.0166
2894.00,0.0165
2893.00,0.0164
2892.00,0.0164
2891.00,0.0163
2890.00,0.0162
2889.00,0.0162
2888.00,0.0160
2887.00,0.0159
2886.00,0.0158
2885.00,0.0156
2884.00,0.0156
2883.00,0.0156
2882.00,0.0155
2881.00,0.0155
2880.00,0.0154
2879.00,0.0153
2878.00,0.0152
2877.00,0.0152
2876.00,0.0151
2875.00,0.0150
2874.00,0.0149
2873.00,0.0148
2872.00,0.0146
2871.00,0.0145
2870.00,0.0144
2869.00,0.0142
2868.00,0.0141
2867.00,0.0140
2866.00,0.0140
2865.00,0.0139
2864.00,0.0139
2863.00,0.0138
2862.00,0.0137
2861.00,0.0136
2860.00,0.0135
2859.00,0.0135
2858.00,0.0135
2857.00,0.0135
2856.00,0.0135
2855.00,0.0134
2854.00,0.0134
2853.00,0.0133
2852.00,0.0133
2851.00,0.0132
2850.00,0.0131
2849.00,0.0130
2848.00,0.0129
2847.00,0.0127
2846.00,0.0125
2845.00,0.0123
2844.00,0.0122
2843.00,0.0120
2842.00,0.0119
2841.00,0.0117
2840.00,0.0117
2839.00,0.0116
2838.00,0.0115
2837.00,0.0115
2836.00,0.0114
2835.00,0.0113
2834.00,0.0112
2833.00,0.0112
2832.00,0.0111
2831.00,0.0111
2830.00,0.0110
2829.00,0.0109
2828.00,0.0109
2827.00,0.0108
2826.00,0.0108
2825.00,0.0107
2824.00,0.0107
2823.00,0.0106
2822.00,0.0106
2821.00,0.0106
2820.00,0.0105
2819.00,0.0105
2818.00,0.0104
2817.00,0.0104
2816.00,0.0103
2815.00,0.0103
2814.00,0.0103
2813.00,0.0102
2812.00,0.0101
2811.00,0.0101
2810.00,0.0100
2809.00,0.0100
2808.00,0.0100
2807.00,0.0100
2806.00,0.0099
2805.00,0.0099
2804.00,0.0099
2803.00,0.0098
2802.00,0.0098
2801.00,0.0097
2800.00,0.0097
2799.00,0.0096
2798.00,0.0096
2797.00,0.0096
2796.00,0.0096
2795.00,0.0096
2794.00,0.0095
2793.00,0.0095
2792.00,0.0094
2791.00,0.0094
2790.00,0.0093
2789.00,0.0093
2788.00,0.0093
2787.00,0.0093
2786.00,0.0093
2785.00,0.0093
2784.00,0.0092
2783.00,0.0092
2782.00,0.0092
2781.00,0.0091
2780.00,0.0091
2779.00,0.0090
2778.00,0.0090
2777.00,0.0090
2776.00,0.0090
2775.00,0.0090
2774.00,0.0089
2773.00,0.0089
2772.00,0.0088
2771.00,0.0088
2770.00,0.0087
2769.00,0.0087
2768.00,0.0087
2767.00,0.0087
2766.00,0.0087
2765.00,0.0087
2764.00,0.0087
2763.00,0.0086
2762.00,0.0086
2761.00,0.0086
2760.00,0.0086
2759.00,0.0086
2758.00,0.0086
2757.00,0.0085
2756.00,0.0085
2755.00,0.0085
2754.00,0.0085
2753.00,0.0085
2752.00,0.0084
2751.00,0.0084
2750.00,0.0083
2749.00,0.0083
2748.00,0.0082
2747.00,0.0082
2746.00,0.0082
2745.00,0.0082
2744.00,0.0082
2743.00,0.0082
2742.00,0.0082
2741.00,0.0081
2740.00,0.0081
2739.00,0.0082
2738.00,0.0082
2737.00,0.0082
2736.00,0.0082
2735.00,0.0082
2734.00,0.0082
2733.00,0.0082
2732.00,0.0081
2731.00,0.0081
2730.00,0.0080
2729.00,0.0080
2728.00,0.0080
2727.00,0.0080
2726.00,0.0080
2725.00,0.0080
2724.00,0.0079
2723.00,0.0079
2722.00,0.0079
2721.00,0.0079
2720.00,0.0079
2719.00,0.0079
2718.00,0.0079
2717.00,0.0079
2716.00,0.0079
2715.00,0.0078
2714.00,0.0078
2713.00,0.0078
2712.00,0.0078
2711.00,0.0078
2710.00,0.0078
2709.00,0.0077
2708.00,0.0077
2707.00,0.0077
2706.00,0.0077
2705.00,0.0076
2704.00,0.0076
2703.00,0.0076
2702.00,0.0076
2701.00,0.0076
2700.00,0.0076
2699.00,0.0076
2698.00,0.0076
2697.00,0.0076
2696.00,0.0076
2695.00,0.0076
2694.00,0.0076
2693.00,0.0075
2692.00,0.0075
2691.00,0.0074
2690.00,0.0074
2689.00,0.0074
2688.00,0.0074
2687.00,0.0073
2686.00,0.0073
2685.00,0.0073
2684.00,0.0073
2683.00,0.0072
2682.00,0.0072
2681.00,0.0072
2680.00,0.0072
2679.00,0.0072
2678.00,0.0072
2677.00,0.0073
2676.00,0.0073
2675.00,0.0073
2674.00,0.0073
2673.00,0.0073
2672.00,0.0072
2671.00,0.0072
2670.00,0.0072
2669.00,0.0072
2668.00,0.0072
2667.00,0.0072
2666.00,0.0072
2665.00,0.0072
2664.00,0.0073
2663.00,0.0074
2662.00,0.0074
2661.00,0.0075
2660.00,0.0076
2659.00,0.0077
2658.00,0.0077
2657.00,0.0077
2656.00,0.0077
2655.00,0.0077
2654.00,0.0077
2653.00,0.0076
2652.00,0.0076
2651.00,0.0076
2650.00,0.0076
2649.00,0.0077
2648.00,0.0077
2647.00,0.0077
2646.00,0.0076
2645.00,0.0076
2644.00,0.0075
2643.00,0.0075
2642.00,0.0074
2641.00,0.0074
2640.00,0.0074
2639.00,0.0074
2638.00,0.0073
2637.00,0.0073
2636.00,0.0073
2635.00,0.0072
2634.00,0.0072
2633.00,0.0072
2632.00,0.0071
2631.00,0.0071
2630.00,0.0071
2629.00,0.0070
2628.00,0.0070
2627.00,0.0070
2626.00,0.0070
2625.00,0.0069
2624.00,0.0069
2623.00,0.0069
2622.00,0.0068
2621.00,0.0068
2620.00,0.0067
2619.00,0.0067
2618.00,0.0067
2617.00,0.0067
2616.00,0.0067
2615.00,0.0067
2614.00,0.0066
2613.00,0.0066
2612.00,0.0066
2611.00,0.0066
2610.00,0.0066
2609.00,0.0066
2608.00,0.0066
2607.00,0.0066
2606.00,0.0066
2605.00,0.0066
2604.00,0.0066
2603.00,0.0065
2602.00,0.0065
2601.00,0.0065
2600.00,0.0064
2599.00,0.0064
2598.00,0.0063
2597.00,0.0063
2596.00,0.0063
2595.00,0.0063
2594.00,0.0063
2593.00,0.0063
2592.00,0.0062
2591.00,0.0062
2590.00,0.0061
2589.00,0.0061
2588.00,0.0061
2587.00,0.0061
2586.00,0.0061
2585.00,0.0061
2584.00,0.0061
2583.00,0.0060
2582.00,0.0060
2581.00,0.0059
2580.00,0.0059
2579.00,0.0059
2578.00,0.0059
2577.00,0.0059
2576.00,0.0059
2575.00,0.0059
2574.00,0.0059
2573.00,0.0058
2572.00,0.0058
2571.00,0.0058
2570.00,0.0058
2569.00,0.0058
2568.00,0.0058
2567.00,0.0058
2566.00,0.0058
2565.00,0.0058
2564.00,0.0057
2563.00,0.0057
2562.00,0.0057
2561.00,0.0056
2560.00,0.0057
2559.00,0.0057
2558.00,0.0057
2557.00,0.0057
2556.00,0.0056
2555.00,0.0056
2554.00,0.0055
2553.00,0.0055
2552.00,0.0055
2551.00,0.0055
2550.00,0.0056
2549.00,0.0057
2548.00,0.0057
2547.00,0.0057
2546.00,0.0057
2545.00,0.0056
2544.00,0.0055
2543.00,0.0055
2542.00,0.0054
2541.00,0.0054
2540.00,0.0054
2539.00,0.0054
2538.00,0.0054
2537.00,0.0054
2536.00,0.0055
2535.00,0.0055
2534.00,0.0056
2533.00,0.0056
2532.00,0.0055
2531.00,0.0055
2530.00,0.0054
2529.00,0.0054
2528.00,0.0053
2527.00,0.0054
2526.00,0.0054
2525.00,0.0054
2524.00,0.0055
2523.00,0.0055
2522.00,0.0054
2521.00,0.0054
2520.00,0.0053
2519.00,0.0053
2518.00,0.0054
2517.00,0.0054
2516.00,0.0055
2515.00,0.0054
2514.00,0.0054
2513.00,0.0053
2512.00,0.0053
2511.00,0.0054
2510.00,0.0054
2509.00,0.0054
2508.00,0.0054
2507.00,0.0053
2506.00,0.0052
2505.00,0.0051
2504.00,0.0052
2503.00,0.0053
2502.00,0.0054
2501.00,0.0054
2500.00,0.0054
2499.00,0.0053
2498.00,0.0053
2497.00,0.0053
2496.00,0.0054
2495.00,0.0054
2494.00,0.0054
2493.00,0.0054
2492.00,0.0054
2491.00,0.0054
2490.00,0.0053
2489.00,0.0053
2488.00,0.0053
2487.00,0.0053
2486.00,0.0053
2485.00,0.0053
2484.00,0.0053
2483.00,0.0052
2482.00,0.0052
2481.00,0.0052
2480.00,0.0052
2479.00,0.0052
2478.00,0.0053
2477.00,0.0053
2476.00,0.0053
2475.00,0.0053
2474.00,0.0052
2473.00,0.0052
2472.00,0.0051
2471.00,0.0051
2470.00,0.0051
2469.00,0.0051
2468.00,0.0052
2467.00,0.0052
2466.00,0.0053
2465.00,0.0053
2464.00,0.0053
2463.00,0.0053
2462.00,0.0053
2461.00,0.0053
2460.00,0.0053
2459.00,0.0053
2458.00,0.0054
2457.00,0.0055
2456.00,0.0055
2455.00,0.0056
2454.00,0.0056
2453.00,0.0057
2452.00,0.0057
2451.00,0.0057
2450.00,0.0056
2449.00,0.0056
2448.00,0.0055
2447.00,0.0055
2446.00,0.0055
2445.00,0.0054
2444.00,0.0054
2443.00,0.0053
2442.00,0.0052
2441.00,0.0052
2440.00,0.0052
2439.00,0.0053
2438.00,0.0053
2437.00,0.0054
2436.00,0.0054
2435.00,0.0053
2434.00,0.0052
2433.00,0.0052
2432.00,0.0052
2431.00,0.0052
2430.00,0.0052
2429.00,0.0052
2428.00,0.0051
2427.00,0.0051
2426.00,0.0050
2425.00,0.0050
2424.00,0.0051
2423.00,0.0051
2422.00,0.0051
2421.00,0.0051
2420.00,0.0052
2419.00,0.0052
2418.00,0.0052
2417.00,0.0052
2416.00,0.0052
2415.00,0.0052
2414.00,0.0052
2413.00,0.0053
2412.00,0.0054
2411.00,0.0054
2410.00,0.0054
2409.00,0.0054
2408.00,0.0053
2407.00,0.0052
2406.00,0.0051
2405.00,0.0050
2404.00,0.0050
2403.00,0.0050
2402.00,0.0051
2401.00,0.0051
2400.00,0.0051
2399.00,0.0051
2398.00,0.0051
2397.00,0.0051
2396.00,0.0052
2395.00,0.0052
2394.00,0.0052
2393.00,0.0051
2392.00,0.0051
2391.00,0.0052
2390.00,0.0052
2389.00,0.0052
2388.00,0.0053
2387.00,0.0052
2386.00,0.0052
2385.00,0.0051
2384.00,0.0051
2383.00,0.0050
2382.00,0.0049
2381.00,0.0049
2380.00,0.0048
2379.00,0.0048
2378.00,0.0048
2377.00,0.0048
2376.00,0.0047
2375.00,0.0047
2374.00,0.0047
2373.00,0.0047
2372.00,0.0048
2371.00,0.0048
2370.00,0.0048
2369.00,0.0048
2368.00,0.0048
2367.00,0.0049
2366.00,0.0049
2365.00,0.0050
2364.00,0.0051
2363.00,0.0051
2362.00,0.0051
2361.00,0.0051
2360.00,0.0052
2359.00,0.0053
2358.00,0.0054
2357.00,0.0054
2356.00,0.0054
2355.00,0.0053
2354.00,0.0053
2353.00,0.0053
2352.00,0.0054
2351.00,0.0054
2350.00,0.0055
2349.00,0.0055
2348.00,0.0056
2347.00,0.0057
2346.00,0.0058
2345.00,0.0059
2344.00,0.0059
2343.00,0.0059
2342.00,0.0059
2341.00,0.0060
2340.00,0.0061
2339.00,0.0062
2338.00,0.0063
2337.00,0.0063
2336.00,0.0062
2335.00,0.0061
2334.00,0.0061
2333.00,0.0062
2332.00,0.0062
2331.00,0.0062
2330.00,0.0062
2329.00,0.0063
2328.00,0.0066
2327.00,0.0070
2326.00,0.0076
2325.00,0.0081
2324.00,0.0085
2323.00,0.0086
2322.00,0.0085
2321.00,0.0082
2320.00,0.0080
2319.00,0.0078
2318.00,0.0077
2317.00,0.0075
2316.00,0.0075
2315.00,0.0074
2314.00,0.0073
2313.00,0.0073
2312.00,0.0073
2311.00,0.0073
2310.00,0.0073
2309.00,0.0073
2308.00,0.0074
2307.00,0.0074
2306.00,0.0075
2305.00,0.0076
2304.00,0.0077
2303.00,0.0077
2302.00,0.0077
2301.00,0.0076
2300.00,0.0076
2299.00,0.0077
2298.00,0.0077
2297.00,0.0078
2296.00,0.0080
2295.00,0.0081
2294.00,0.0083
2293.00,0.0085
2292.00,0.0086
2291.00,0.0087
2290.00,0.0088
2289.00,0.0089
2288.00,0.0090
2287.00,0.0091
2286.00,0.0092
2285.00,0.0092
2284.00,0.0092
2283.00,0.0091
2282.00,0.0090
2281.00,0.0089
2280.00,0.0089
2279.00,0.0088
2278.00,0.0086
2277.00,0.0085
2276.00,0.0085
2275.00,0.0085
2274.00,0.0085
2273.00,0.0084
2272.00,0.0084
2271.00,0.0084
2270.00,0.0084
2269.00,0.0083
2268.00,0.0082
2267.00,0.0080
2266.00,0.0079
2265.00,0.0079
2264.00,0.0080
2263.00,0.0080
2262.00,0.0081
2261.00,0.0081
2260.00,0.0082
2259.00,0.0082
2258.00,0.0081
2257.00,0.0080
2256.00,0.0079
2255.00,0.0077
2254.00,0.0076
2253.00,0.0076
2252.00,0.0075
2251.00,0.0075
2250.00,0.0075
2249.00,0.0076
2248.00,0.0078
2247.00,0.0079
2246.00,0.0079
2245.00,0.0079
2244.00,0.0079
2243.00,0.0079
2242.00,0.0079
2241.00,0.0080
2240.00,0.0080
2239.00,0.0079
2238.00,0.0079
2237.00,0.0079
2236.00,0.0080
2235.00,0.0081
2234.00,0.0082
2233.00,0.0082
2232.00,0.0082
2231.00,0.0081
2230.00,0.0081
2229.00,0.0081
2228.00,0.0082
2227.00,0.0082
2226.00,0.0082
2225.00,0.0083
2224.00,0.0083
2223.00,0.0083
2222.00,0.0084
2221.00,0.0084
2220.00,0.0084
2219.00,0.0084
2218.00,0.0083
2217.00,0.0083
2216.00,0.0084
2215.00,0.0084
2214.00,0.0084
2213.00,0.0082
2212.00,0.0081
2211.00,0.0081
2210.00,0.0081
2209.00,0.0081
2208.00,0.0082
2207.00,0.0082
2206.00,0.0082
2205.00,0.0083
2204.00,0.0084
2203.00,0.0085
2202.00,0.0085
2201.00,0.0085
2200.00,0.0085
2199.00,0.0084
2198.00,0.0083
2197.00,0.0082
2196.00,0.0083
2195.00,0.0085
2194.00,0.0087
2193.00,0.0088
2192.00,0.0088
2191.00,0.0087
2190.00,0.0086
2189.00,0.0086
2188.00,0.0086
2187.00,0.0086
2186.00,0.0087
2185.00,0.0088
2184.00,0.0086
2183.00,0.0082
2182.00,0.0075
2181.00,0.0069
2180.00,0.0067
2179.00,0.0069
2178.00,0.0072
2177.00,0.0074
2176.00,0.0074
2175.00,0.0073
2174.00,0.0073
2173.00,0.0077
2172.00,0.0081
2171.00,0.0085
2170.00,0.0087
2169.00,0.0088
2168.00,0.0090
2167.00,0.0093
2166.00,0.0097
2165.00,0.0100
2164.00,0.0102
2163.00,0.0103
2162.00,0.0101
2161.00,0.0093
2160.00,0.0077
2159.00,0.0056
2158.00,0.0037
2157.00,0.0028
2156.00,0.0029
2155.00,0.0035
2154.00,0.0041
2153.00,0.0046
2152.00,0.0049
2151.00,0.0051
2150.00,0.0053
2149.00,0.0054
2148.00,0.0055
2147.00,0.0055
2146.00,0.0055
2145.00,0.0055
2144.00,0.0055
2143.00,0.0056
2142.00,0.0056
2141.00,0.0057
2140.00,0.0058
2139.00,0.0057
2138.00,0.0056
2137.00,0.0056
2136.00,0.0055
2135.00,0.0055
2134.00,0.0054
2133.00,0.0054
2132.00,0.0056
2131.00,0.0058
2130.00,0.0061
2129.00,0.0064
2128.00,0.0067
2127.00,0.0070
2126.00,0.0073
2125.00,0.0076
2124.00,0.0079
2123.00,0.0082
2122.00,0.0084
2121.00,0.0086
2120.00,0.0087
2119.00,0.0088
2118.00,0.0089
2117.00,0.0090
2116.00,0.0092
2115.00,0.0095
2114.00,0.0096
2113.00,0.0097
2112.00,0.0098
2111.00,0.0098
2110.00,0.0098
2109.00,0.0097
2108.00,0.0097
2107.00,0.0096
2106.00,0.0094
2105.00,0.0092
2104.00,0.0091
2103.00,0.0091
2102.00,0.0092
2101.00,0.0093
2100.00,0.0093
2099.00,0.0092
2098.00,0.0090
2097.00,0.0089
2096.00,0.0087
2095.00,0.0085
2094.00,0.0083
2093.00,0.0083
2092.00,0.0086
2091.00,0.0089
2090.00,0.0091
2089.00,0.0093
2088.00,0.0094
2087.00,0.0095
2086.00,0.0096
2085.00,0.0097
2084.00,0.0097
2083.00,0.0096
2082.00,0.0095
2081.00,0.0093
2080.00,0.0093
2079.00,0.0092
2078.00,0.0092
2077.00,0.0092
2076.00,0.0093
2075.00,0.0094
2074.00,0.0094
2073.00,0.0095
2072.00,0.0094
2071.00,0.0093
2070.00,0.0091
2069.00,0.0090
2068.00,0.0091
2067.00,0.0093
2066.00,0.0093
2065.00,0.0093
2064.00,0.0090
2063.00,0.0088
2062.00,0.0086
2061.00,0.0086
2060.00,0.0086
2059.00,0.0085
2058.00,0.0085
2057.00,0.0085
2056.00,0.0085
2055.00,0.0084
2054.00,0.0086
2053.00,0.0090
2052.00,0.0096
2051.00,0.0101
2050.00,0.0100
2049.00,0.0095
2048.00,0.0089
2047.00,0.0084
2046.00,0.0081
2045.00,0.0079
2044.00,0.0079
2043.00,0.0078
2042.00,0.0077
2041.00,0.0075
2040.00,0.0074
2039.00,0.0075
2038.00,0.0077
2037.00,0.0079
2036.00,0.0080
2035.00,0.0077
2034.00,0.0072
2033.00,0.0069
2032.00,0.0067
2031.00,0.0067
2030.00,0.0067
2029.00,0.0065
2028.00,0.0063
2027.00,0.0064
2026.00,0.0066
2025.00,0.0068
2024.00,0.0067
2023.00,0.0064
2022.00,0.0061
2021.00,0.0060
2020.00,0.0059
2019.00,0.0059
2018.00,0.0059
2017.00,0.0061
2016.00,0.0062
2015.00,0.0062
2014.00,0.0061
2013.00,0.0062
2012.00,0.0064
2011.00,0.0066
2010.00,0.0065
2009.00,0.0063
2008.00,0.0058
2007.00,0.0052
2006.00,0.0047
2005.00,0.0046
2004.00,0.0049
2003.00,0.0052
2002.00,0.0055
2001.00,0.0056
2000.00,0.0057
1999.00,0.0058
1998.00,0.0060
1997.00,0.0064
1996.00,0.0068
1995.00,0.0070
1994.00,0.0069
1993.00,0.0067
1992.00,0.0066
1991.00,0.0067
1990.00,0.0069
1989.00,0.0072
1988.00,0.0074
1987.00,0.0074
1986.00,0.0073
1985.00,0.0072
1984.00,0.0073
1983.00,0.0076
1982.00,0.0081
1981.00,0.0086
1980.00,0.0088
1979.00,0.0084
1978.00,0.0074
1977.00,0.0062
1976.00,0.0052
1975.00,0.0045
1974.00,0.0041
1973.00,0.0040
1972.00,0.0040
1971.00,0.0041
1970.00,0.0041
1969.00,0.0041
1968.00,0.0042
1967.00,0.0044
1966.00,0.0045
1965.00,0.0046
1964.00,0.0047
1963.00,0.0046
1962.00,0.0045
1961.00,0.0042
1960.00,0.0040
1959.00,0.0039
1958.00,0.0039
1957.00,0.0041
1956.00,0.0044
1955.00,0.0046
1954.00,0.0047
1953.00,0.0047
1952.00,0.0047
1951.00,0.0047
1950.00,0.0045
1949.00,0.0044
1948.00,0.0044
1947.00,0.0045
1946.00,0.0047
1945.00,0.0048
1944.00,0.0048
1943.00,0.0048
1942.00,0.0047
1941.00,0.0046
1940.00,0.0044
1939.00,0.0043
1938.00,0.0041
1937.00,0.0041
1936.00,0.0042
1935.00,0.0044
1934.00,0.0045
1933.00,0.0045
1932.00,0.0046
1931.00,0.0045
1930.00,0.0044
1929.00,0.0044
1928.00,0.0043
1927.00,0.0044
1926.00,0.0045
1925.00,0.0046
1924.00,0.0046
1923.00,0.0047
1922.00,0.0047
1921.00,0.0048
1920.00,0.0050
1919.00,0.0051
1918.00,0.0051
1917.00,0.0051
1916.00,0.0051
1915.00,0.0049
1914.00,0.0048
1913.00,0.0048
1912.00,0.0049
1911.00,0.0049
1910.00,0.0049
1909.00,0.0048
1908.00,0.0048
1907.00,0.0047
1906.00,0.0047
1905.00,0.0047
1904.00,0.0048
1903.00,0.0048
1902.00,0.0049
1901.00,0.0049
1900.00,0.0049
1899.00,0.0050
1898.00,0.0050
1897.00,0.0050
1896.00,0.0050
1895.00,0.0049
1894.00,0.0047
1893.00,0.0047
1892.00,0.0046
1891.00,0.0047
1890.00,0.0046
1889.00,0.0045
1888.00,0.0045
1887.00,0.0045
1886.00,0.0045
1885.00,0.0047
1884.00,0.0048
1883.00,0.0048
1882.00,0.0047
1881.00,0.0046
1880.00,0.0045
1879.00,0.0044
1878.00,0.0044
1877.00,0.0044
1876.00,0.0044
1875.00,0.0045
1874.00,0.0046
1873.00,0.0047
1872.00,0.0048
1871.00,0.0048
1870.00,0.0048
1869.00,0.0047
1868.00,0.0045
1867.00,0.0044
1866.00,0.0043
1865.00,0.0043
1864.00,0.0044
1863.00,0.0045
1862.00,0.0045
1861.00,0.0044
1860.00,0.0044
1859.00,0.0044
1858.00,0.0044
1857.00,0.0045
1856.00,0.0045
1855.00,0.0045
1854.00,0.0044
1853.00,0.0044
1852.00,0.0044
1851.00,0.0043
1850.00,0.0043
1849.00,0.0043
1848.00,0.0043
1847.00,0.0044
1846.00,0.0043
1845.00,0.0042
1844.00,0.0041
1843.00,0.0040
1842.00,0.0041
1841.00,0.0042
1840.00,0.0043
1839.00,0.0044
1838.00,0.0044
1837.00,0.0044
1836.00,0.0043
1835.00,0.0044
1834.00,0.0044
1833.00,0.0045
1832.00,0.0046
1831.00,0.0046
1830.00,0.0045
1829.00,0.0044
1828.00,0.0044
1827.00,0.0045
1826.00,0.0045
1825.00,0.0045
1824.00,0.0045
1823.00,0.0045
1822.00,0.0045
1821.00,0.0044
1820.00,0.0044
1819.00,0.0043
1818.00,0.0042
1817.00,0.0041
1816.00,0.0040
1815.00,0.0040
1814.00,0.0041
1813.00,0.0043
1812.00,0.0044
1811.00,0.0046
1810.00,0.0046
1809.00,0.0046
1808.00,0.0045
1807.00,0.0045
1806.00,0.0045
1805.00,0.0045
1804.00,0.0046
1803.00,0.0046
1802.00,0.0046
1801.00,0.0045
1800.00,0.0044
1799.00,0.0043
1798.00,0.0043
1797.00,0.0043
1796.00,0.0044
1795.00,0.0045
1794.00,0.0046
1793.00,0.0045
1792.00,0.0044
1791.00,0.0043
1790.00,0.0042
1789.00,0.0042
1788.00,0.0043
1787.00,0.0044
1786.00,0.0044
1785.00,0.0044
1784.00,0.0045
1783.00,0.0045
1782.00,0.0044
1781.00,0.0044
1780.00,0.0044
1779.00,0.0044
1778.00,0.0043
1777.00,0.0043
1776.00,0.0044
1775.00,0.0045
1774.00,0.0045
1773.00,0.0044
1772.00,0.0043
1771.00,0.0043
1770.00,0.0043
1769.00,0.0044
1768.00,0.0046
1767.00,0.0047
1766.00,0.0047
1765.00,0.0047
1764.00,0.0048
1763.00,0.0048
1762.00,0.0047
1761.00,0.0047
1760.00,0.0048
1759.00,0.0048
1758.00,0.0049
1757.00,0.0049
1756.00,0.0050
1755.00,0.0051
1754.00,0.0051
1753.00,0.0053
1752.00,0.0054
1751.00,0.0055
1750.00,0.0055
1749.00,0.0054
1748.00,0.0055
1747.00,0.0056
1746.00,0.0057
1745.00,0.0058
1744.00,0.0060
1743.00,0.0061
1742.00,0.0061
1741.00,0.0061
1740.00,0.0062
1739.00,0.0063
1738.00,0.0064
1737.00,0.0065
1736.00,0.0067
1735.00,0.0068
1734.00,0.0068
1733.00,0.0069
1732.00,0.0072
1731.00,0.0074
1730.00,0.0076
1729.00,0.0078
1728.00,0.0079
1727.00,0.0081
1726.00,0.0082
1725.00,0.0083
1724.00,0.0086
1723.00,0.0088
1722.00,0.0091
1721.00,0.0093
1720.00,0.0095
1719.00,0.0098
1718.00,0.0101
1717.00,0.0105
1716.00,0.0109
1715.00,0.0113
1714.00,0.0115
1713.00,0.0118
1712.00,0.0122
1711.00,0.0126
1710.00,0.0129
1709.00,0.0133
1708.00,0.0136
1707.00,0.0140
1706.00,0.0145
1705.00,0.0150
1704.00,0.0155
1703.00,0.0161
1702.00,0.0166
1701.00,0.0171
1700.00,0.0177
1699.00,0.0184
1698.00,0.0190
1697.00,0.0196
1696.00,0.0205
1695.00,0.0214
1694.00,0.0221
1693.00,0.0229
1692.00,0.0236
1691.00,0.0244
1690.00,0.0253
1689.00,0.0262
1688.00,0.0270
1687.00,0.0277
1686.00,0.0284
1685.00,0.0293
1684.00,0.0308
1683.00,0.0322
1682.00,0.0334
1681.00,0.0344
1680.00,0.0354
1679.00,0.0364
1678.00,0.0372
1677.00,0.0381
1676.00,0.0392
1675.00,0.0405
1674.00,0.0418
1673.00,0.0429
1672.00,0.0439
1671.00,0.0450
1670.00,0.0463
1669.00,0.0479
1668.00,0.0493
1667.00,0.0505
1666.00,0.0515
1665.00,0.0523
1664.00,0.0533
1663.00,0.0546
1662.00,0.0560
1661.00,0.0572
1660.00,0.0584
1659.00,0.0595
1658.00,0.0604
1657.00,0.0611
1656.00,0.0617
1655.00,0.0623
1654.00,0.0633
1653.00,0.0653
1652.00,0.0671
1651.00,0.0682
1650.00,0.0686
1649.00,0.0689
1648.00,0.0695
1647.00,0.0704
1646.00,0.0715
1645.00,0.0723
1644.00,0.0728
1643.00,0.0732
1642.00,0.0734
1641.00,0.0736
1640.00,0.0738
1639.00,0.0738
1638.00,0.0736
1637.00,0.0734
1636.00,0.0733
1635.00,0.0734
1634.00,0.0733
1633.00,0.0730
1632.00,0.0726
1631.00,0.0720
1630.00,0.0713
1629.00,0.0704
1628.00,0.0696
1627.00,0.0687
1626.00,0.0678
1625.00,0.0667
1624.00,0.0655
1623.00,0.0643
1622.00,0.0630
1621.00,0.0619
1620.00,0.0608
1619.00,0.0596
1618.00,0.0581
1617.00,0.0565
1616.00,0.0549
1615.00,0.0536
1614.00,0.0523
1613.00,0.0511
1612.00,0.0497
1611.00,0.0484
1610.00,0.0471
1609.00,0.0458
1608.00,0.0445
1607.00,0.0432
1606.00,0.0420
1605.00,0.0408
1604.00,0.0396
1603.00,0.0385
1602.00,0.0375
1601.00,0.0365
1600.00,0.0355
1599.00,0.0346
1598.00,0.0337
1597.00,0.0329
1596.00,0.0321
1595.00,0.0313
1594.00,0.0305
1593.00,0.0297
1592.00,0.0290
1591.00,0.0283
1590.00,0.0276
1589.00,0.0270
1588.00,0.0263
1587.00,0.0257
1586.00,0.0252
1585.00,0.0247
1584.00,0.0242
1583.00,0.0238
1582.00,0.0233
1581.00,0.0230
1580.00,0.0226
1579.00,0.0223
1578.00,0.0220
1577.00,0.0215
1576.00,0.0209
1575.00,0.0204
1574.00,0.0201
1573.00,0.0199
1572.00,0.0197
1571.00,0.0195
1570.00,0.0191
1569.00,0.0188
1568.00,0.0185
1567.00,0.0183
1566.00,0.0181
1565.00,0.0179
1564.00,0.0177
1563.00,0.0176
1562.00,0.0175
1561.00,0.0173
1560.00,0.0168
1559.00,0.0162
1558.00,0.0159
1557.00,0.0158
1556.00,0.0159
1555.00,0.0159
1554.00,0.0158
1553.00,0.0157
1552.00,0.0156
1551.00,0.0154
1550.00,0.0152
1549.00,0.0150
1548.00,0.0147
1547.00,0.0145
1546.00,0.0143
1545.00,0.0142
1544.00,0.0140
1543.00,0.0137
1542.00,0.0133
1541.00,0.0127
1540.00,0.0121
1539.00,0.0117
1538.00,0.0116
1537.00,0.0116
1536.00,0.0115
1535.00,0.0114
1534.00,0.0110
1533.00,0.0106
1532.00,0.0103
1531.00,0.0101
1530.00,0.0100
1529.00,0.0098
1528.00,0.0096
1527.00,0.0094
1526.00,0.0092
1525.00,0.0090
1524.00,0.0088
1523.00,0.0086
1522.00,0.0083
1521.00,0.0080
1520.00,0.0078
1519.00,0.0076
1518.00,0.0074
1517.00,0.0072
1516.00,0.0070
1515.00,0.0068
1514.00,0.0067
1513.00,0.0066
1512.00,0.0065
1511.00,0.0065
1510.00,0.0065
1509.00,0.0064
1508.00,0.0062
1507.00,0.0058
1506.00,0.0053
1505.00,0.0049
1504.00,0.0047
1503.00,0.0047
1502.00,0.0048
1501.00,0.0047
1500.00,0.0046
1499.00,0.0045
1498.00,0.0044
1497.00,0.0042
1496.00,0.0042
1495.00,0.0041
1494.00,0.0041
1493.00,0.0042
1492.00,0.0042
1491.00,0.0042
1490.00,0.0043
1489.00,0.0044
1488.00,0.0044
1487.00,0.0044
1486.00,0.0045
1485.00,0.0047
1484.00,0.0048
1483.00,0.0050
1482.00,0.0052
1481.00,0.0053
1480.00,0.0055
1479.00,0.0057
1478.00,0.0058
1477.00,0.0060
1476.00,0.0062
1475.00,0.0064
1474.00,0.0065
1473.00,0.0066
1472.00,0.0067
1471.00,0.0068
1470.00,0.0069
1469.00,0.0069
1468.00,0.0070
1467.00,0.0071
1466.00,0.0071
1465.00,0.0071
1464.00,0.0071
1463.00,0.0071
1462.00,0.0072
1461.00,0.0073
1460.00,0.0073
1459.00,0.0074
1458.00,0.0076
1457.00,0.0079
1456.00,0.0081
1455.00,0.0081
1454.00,0.0081
1453.00,0.0081
1452.00,0.0081
1451.00,0.0080
1450.00,0.0080
1449.00,0.0080
1448.00,0.0080
1447.00,0.0080
1446.00,0.0080
1445.00,0.0080
1444.00,0.0081
1443.00,0.0082
1442.00,0.0083
1441.00,0.0084
1440.00,0.0085
1439.00,0.0085
1438.00,0.0086
1437.00,0.0086
1436.00,0.0087
1435.00,0.0088
1434.00,0.0089
1433.00,0.0090
1432.00,0.0090
1431.00,0.0090
1430.00,0.0091
1429.00,0.0092
1428.00,0.0092
1427.00,0.0093
1426.00,0.0093
1425.00,0.0094
1424.00,0.0095
1423.00,0.0095
1422.00,0.0096
1421.00,0.0096
1420.00,0.0096
1419.00,0.0097
1418.00,0.0097
1417.00,0.0098
1416.00,0.0098
1415.00,0.0097
1414.00,0.0096
1413.00,0.0096
1412.00,0.0096
1411.00,0.0096
1410.00,0.0096
1409.00,0.0096
1408.00,0.0096
1407.00,0.0096
1406.00,0.0096
1405.00,0.0095
1404.00,0.0095
1403.00,0.0093
1402.00,0.0092
1401.00,0.0091
1400.00,0.0090
1399.00,0.0090
1398.00,0.0089
1397.00,0.0088
1396.00,0.0086
1395.00,0.0085
1394.00,0.0084
1393.00,0.0083
1392.00,0.0083
1391.00,0.0083
1390.00,0.0084
1389.00,0.0087
1388.00,0.0090
1387.00,0.0095
1386.00,0.0100
1385.00,0.0104
1384.00,0.0109
1383.00,0.0113
1382.00,0.0117
1381.00,0.0120
1380.00,0.0123
1379.00,0.0125
1378.00,0.0127
1377.00,0.0129
1376.00,0.0129
1375.00,0.0129
1374.00,0.0129
1373.00,0.0128
1372.00,0.0126
1371.00,0.0123
1370.00,0.0121
1369.00,0.0118
1368.00,0.0115
1367.00,0.0113
1366.00,0.0110
1365.00,0.0109
1364.00,0.0107
1363.00,0.0106
1362.00,0.0106
1361.00,0.0105
1360.00,0.0103
1359.00,0.0101
1358.00,0.0100
1357.00,0.0099
1356.00,0.0099
1355.00,0.0098
1354.00,0.0096
1353.00,0.0094
1352.00,0.0091
1351.00,0.0088
1350.00,0.0084
1349.00,0.0081
1348.00,0.0077
1347.00,0.0073
1346.00,0.0069
1345.00,0.0065
1344.00,0.0062
1343.00,0.0059
1342.00,0.0057
1341.00,0.0057
1340.00,0.0056
1339.00,0.0056
1338.00,0.0054
1337.00,0.0052
1336.00,0.0049
1335.00,0.0047
1334.00,0.0046
1333.00,0.0044
1332.00,0.0043
1331.00,0.0042
1330.00,0.0042
1329.00,0.0042
1328.00,0.0042
1327.00,0.0042
1326.00,0.0042
1325.00,0.0042
1324.00,0.0042
1323.00,0.0042
1322.00,0.0043
1321.00,0.0044
1320.00,0.0044
1319.00,0.0045
1318.00,0.0045
1317.00,0.0044
1316.00,0.0044
1315.00,0.0044
1314.00,0.0044
1313.00,0.0045
1312.00,0.0045
1311.00,0.0045
1310.00,0.0045
1309.00,0.0045
1308.00,0.0046
1307.00,0.0047
1306.00,0.0049
1305.00,0.0051
1304.00,0.0053
1303.00,0.0055
1302.00,0.0057
1301.00,0.0059
1300.00,0.0062
1299.00,0.0066
1298.00,0.0071
1297.00,0.0076
1296.00,0.0082
1295.00,0.0089
1294.00,0.0096
1293.00,0.0104
1292.00,0.0112
1291.00,0.0121
1290.00,0.0131
1289.00,0.0141
1288.00,0.0152
1287.00,0.0162
1286.00,0.0173
1285.00,0.0185
1284.00,0.0197
1283.00,0.0209
1282.00,0.0223
1281.00,0.0238
1280.00,0.0253
1279.00,0.0268
1278.00,0.0283
1277.00,0.0298
1276.00,0.0314
1275.00,0.0331
1274.00,0.0348
1273.00,0.0366
1272.00,0.0383
1271.00,0.0400
1270.00,0.0416
1269.00,0.0432
1268.00,0.0447
1267.00,0.0461
1266.00,0.0475
1265.00,0.0487
1264.00,0.0499
1263.00,0.0509
1262.00,0.0520
1261.00,0.0529
1260.00,0.0538
1259.00,0.0546
1258.00,0.0553
1257.00,0.0559
1256.00,0.0565
1255.00,0.0570
1254.00,0.0574
1253.00,0.0579
1252.00,0.0582
1251.00,0.0585
1250.00,0.0587
1249.00,0.0589
1248.00,0.0592
1247.00,0.0594
1246.00,0.0597
1245.00,0.0600
1244.00,0.0602
1243.00,0.0605
1242.00,0.0609
1241.00,0.0613
1240.00,0.0618
1239.00,0.0622
1238.00,0.0627
1237.00,0.0632
1236.00,0.0636
1235.00,0.0641
1234.00,0.0645
1233.00,0.0648
1232.00,0.0652
1231.00,0.0654
1230.00,0.0656
1229.00,0.0657
1228.00,0.0657
1227.00,0.0656
1226.00,0.0654
1225.00,0.0652
1224.00,0.0649
1223.00,0.0645
1222.00,0.0640
1221.00,0.0635
1220.00,0.0628
1219.00,0.0620
1218.00,0.0611
1217.00,0.0602
1216.00,0.0591
1215.00,0.0579
1214.00,0.0566
1213.00,0.0552
1212.00,0.0538
1211.00,0.0524
1210.00,0.0509
1209.00,0.0493
1208.00,0.0477
1207.00,0.0460
1206.00,0.0443
1205.00,0.0427
1204.00,0.0410
1203.00,0.0395
1202.00,0.0381
1201.00,0.0368
1200.00,0.0357
1199.00,0.0347
1198.00,0.0340
1197.00,0.0335
1196.00,0.0333
1195.00,0.0332
1194.00,0.0331
1193.00,0.0330
1192.00,0.0328
1191.00,0.0323
1190.00,0.0317
1189.00,0.0310
1188.00,0.0301
1187.00,0.0291
1186.00,0.0281
1185.00,0.0272
1184.00,0.0264
1183.00,0.0258
1182.00,0.0255
1181.00,0.0253
1180.00,0.0252
1179.00,0.0253
1178.00,0.0255
1177.00,0.0259
1176.00,0.0263
1175.00,0.0270
1174.00,0.0277
1173.00,0.0286
1172.00,0.0296
1171.00,0.0308
1170.00,0.0321
1169.00,0.0336
1168.00,0.0352
1167.00,0.0368
1166.00,0.0384
1165.00,0.0401
1164.00,0.0416
1163.00,0.0430
1162.00,0.0441
1161.00,0.0451
1160.00,0.0458
1159.00,0.0462
1158.00,0.0464
1157.00,0.0464
1156.00,0.0462
1155.00,0.0458
1154.00,0.0452
1153.00,0.0444
1152.00,0.0435
1151.00,0.0424
1150.00,0.0412
1149.00,0.0401
1148.00,0.0389
1147.00,0.0378
1146.00,0.0367
1145.00,0.0357
1144.00,0.0347
1143.00,0.0339
1142.00,0.0334
1141.00,0.0331
1140.00,0.0331
1139.00,0.0335
1138.00,0.0342
1137.00,0.0353
1136.00,0.0367
1135.00,0.0385
1134.00,0.0406
1133.00,0.0428
1132.00,0.0451
1131.00,0.0473
1130.00,0.0493
1129.00,0.0509
1128.00,0.0521
1127.00,0.0529
1126.00,0.0533
1125.00,0.0534
1124.00,0.0532
1123.00,0.0528
1122.00,0.0523
1121.00,0.0518
1120.00,0.0512
1119.00,0.0507
1118.00,0.0502
1117.00,0.0499
1116.00,0.0496
1115.00,0.0494
1114.00,0.0491
1113.00,0.0488
1112.00,0.0485
1111.00,0.0482
1110.00,0.0479
1109.00,0.0478
1108.00,0.0478
1107.00,0.0480
1106.00,0.0484
1105.00,0.0491
1104.00,0.0500
1103.00,0.0512
1102.00,0.0525
1101.00,0.0539
1100.00,0.0555
1099.00,0.0572
1098.00,0.0590
1097.00,0.0607
1096.00,0.0623
1095.00,0.0636
1094.00,0.0647
1093.00,0.0657
1092.00,0.0665
1091.00,0.0674
1090.00,0.0683
1089.00,0.0694
1088.00,0.0706
1087.00,0.0718
1086.00,0.0731
1085.00,0.0745
1084.00,0.0762
1083.00,0.0780
1082.00,0.0800
1081.00,0.0823
1080.00,0.0848
1079.00,0.0874
1078.00,0.0901
1077.00,0.0928
1076.00,0.0954
1075.00,0.0981
1074.00,0.1009
1073.00,0.1035
1072.00,0.1060
1071.00,0.1083
1070.00,0.1101
1069.00,0.1117
1068.00,0.1129
1067.00,0.1134
1066.00,0.1133
1065.00,0.1124
1064.00,0.1107
1063.00,0.1084
1062.00,0.1057
1061.00,0.1029
1060.00,0.1003
1059.00,0.0981
1058.00,0.0964
1057.00,0.0952
1056.00,0.0945
1055.00,0.0942
1054.00,0.0941
1053.00,0.0943
1052.00,0.0946
1051.00,0.0950
1050.00,0.0956
1049.00,0.0964
1048.00,0.0976
1047.00,0.0990
1046.00,0.1008
1045.00,0.1027
1044.00,0.1046
1043.00,0.1062
1042.00,0.1073
1041.00,0.1078
1040.00,0.1078
1039.00,0.1074
1038.00,0.1065
1037.00,0.1055
1036.00,0.1045
1035.00,0.1036
1034.00,0.1030
1033.00,0.1027
1032.00,0.1027
1031.00,0.1027
1030.00,0.1027
1029.00,0.1024
1028.00,0.1016
1027.00,0.1002
1026.00,0.0981
1025.00,0.0954
1024.00,0.0921
1023.00,0.0884
1022.00,0.0844
1021.00,0.0803
1020.00,0.0763
1019.00,0.0722
1018.00,0.0684
1017.00,0.0650
1016.00,0.0618
1015.00,0.0591
1014.00,0.0568
1013.00,0.0550
1012.00,0.0537
1011.00,0.0529
1010.00,0.0525
1009.00,0.0525
1008.00,0.0528
1007.00,0.0532
1006.00,0.0535
1005.00,0.0537
1004.00,0.0535
1003.00,0.0526
1002.00,0.0511
1001.00,0.0490
1000.00,0.0463
999.00,0.0434
998.00,0.0405
997.00,0.0380
996.00,0.0358
995.00,0.0342
994.00,0.0330
993.00,0.0322
992.00,0.0316
991.00,0.0312
990.00,0.0307
989.00,0.0302
988.00,0.0294
987.00,0.0284
986.00,0.0271
985.00,0.0257
984.00,0.0244
983.00,0.0233
982.00,0.0225
981.00,0.0220
980.00,0.0216
979.00,0.0214
978.00,0.0214
977.00,0.0216
976.00,0.0219
975.00,0.0224
974.00,0.0230
973.00,0.0238
972.00,0.0244
971.00,0.0249
970.00,0.0251
969.00,0.0248
968.00,0.0237
967.00,0.0220
966.00,0.0198
965.00,0.0172
964.00,0.0144
963.00,0.0119
962.00,0.0096
961.00,0.0077
960.00,0.0062
959.00,0.0050
958.00,0.0042
957.00,0.0037
956.00,0.0033
955.00,0.0032
954.00,0.0034
953.00,0.0038
952.00,0.0042
951.00,0.0047
950.00,0.0054
949.00,0.0061
948.00,0.0070
947.00,0.0081
946.00,0.0093
945.00,0.0107
944.00,0.0123
943.00,0.0141
942.00,0.0162
941.00,0.0187
940.00,0.0216
939.00,0.0250
938.00,0.0288
937.00,0.0327
936.00,0.0367
935.00,0.0405
934.00,0.0441
933.00,0.0472
932.00,0.0499
931.00,0.0523
930.00,0.0543
929.00,0.0561
928.00,0.0576
927.00,0.0587
926.00,0.0595
925.00,0.0600
924.00,0.0601
923.00,0.0600
922.00,0.0598
921.00,0.0595
920.00,0.0591
919.00,0.0585
918.00,0.0579
917.00,0.0570
916.00,0.0558
915.00,0.0544
914.00,0.0529
913.00,0.0511
912.00,0.0492
911.00,0.0473
910.00,0.0455
909.00,0.0436
908.00,0.0418
907.00,0.0400
906.00,0.0383
905.00,0.0368
904.00,0.0355
903.00,0.0343
902.00,0.0333
901.00,0.0324
900.00,0.0315
899.00,0.0307
898.00,0.0302
897.00,0.0298
896.00,0.0295
895.00,0.0294
894.00,0.0293
893.00,0.0292
892.00,0.0291
891.00,0.0289
890.00,0.0286
889.00,0.0279
888.00,0.0270
887.00,0.0257
886.00,0.0241
885.00,0.0223
884.00,0.0202
883.00,0.0180
882.00,0.0159
881.00,0.0140
880.00,0.0124
879.00,0.0114
878.00,0.0109
877.00,0.0109
876.00,0.0112
875.00,0.0114
874.00,0.0116
873.00,0.0117
872.00,0.0114
871.00,0.0110
870.00,0.0105
869.00,0.0099
868.00,0.0093
867.00,0.0089
866.00,0.0086
865.00,0.0086
864.00,0.0089
863.00,0.0095
862.00,0.0103
861.00,0.0115
860.00,0.0129
859.00,0.0146
858.00,0.0165
857.00,0.0186
856.00,0.0209
855.00,0.0234
854.00,0.0262
853.00,0.0290
852.00,0.0317
851.00,0.0343
850.00,0.0367
849.00,0.0390
848.00,0.0408
847.00,0.0421
846.00,0.0429
845.00,0.0429
844.00,0.0422
843.00,0.0408
842.00,0.0388
841.00,0.0364
840.00,0.0336
839.00,0.0306
838.00,0.0276
837.00,0.0247
836.00,0.0219
835.00,0.0193
834.00,0.0169
833.00,0.0148
832.00,0.0129
831.00,0.0113
830.00,0.0099
829.00,0.0088
828.00,0.0078
827.00,0.0069
826.00,0.0062
825.00,0.0056
824.00,0.0051
823.00,0.0048
822.00,0.0045
821.00,0.0042
820.00,0.0040
819.00,0.0038
818.00,0.0038
817.00,0.0038
816.00,0.0038
815.00,0.0038
814.00,0.0039
813.00,0.0042
812.00,0.0047
811.00,0.0053
810.00,0.0060
809.00,0.0067
808.00,0.0073
807.00,0.0079
806.00,0.0085
805.00,0.0091
804.00,0.0097
803.00,0.0102
802.00,0.0105
801.00,0.0107
800.00,0.0106
799.00,0.0104
798.00,0.0100
797.00,0.0096
796.00,0.0091
795.00,0.0085
794.00,0.0079
793.00,0.0073
792.00,0.0065
791.00,0.0058
790.00,0.0053
789.00,0.0048
788.00,0.0044
787.00,0.0042
786.00,0.0041
785.00,0.0041
784.00,0.0042
783.00,0.0043
782.00,0.0046
781.00,0.0051
780.00,0.0056
779.00,0.0061
778.00,0.0067
777.00,0.0074
776.00,0.0080
775.00,0.0086
774.00,0.0089
773.00,0.0089
772.00,0.0087
771.00,0.0082
770.00,0.0077
769.00,0.0071
768.00,0.0064
767.00,0.0058
766.00,0.0051
765.00,0.0046
764.00,0.0042
763.00,0.0039
762.00,0.0038
761.00,0.0037
760.00,0.0037
759.00,0.0038
758.00,0.0039
757.00,0.0042
756.00,0.0046
755.00,0.0051
754.00,0.0058
753.00,0.0067
752.00,0.0078
751.00,0.0090
750.00,0.0104
749.00,0.0121
748.00,0.0138
747.00,0.0153
746.00,0.0167
745.00,0.0180
744.00,0.0189
743.00,0.0197
742.00,0.0204
741.00,0.0212
740.00,0.0220
739.00,0.0227
738.00,0.0235
737.00,0.0241
736.00,0.0245
735.00,0.0247
734.00,0.0248
733.00,0.0248
732.00,0.0247
731.00,0.0247
730.00,0.0247
729.00,0.0248
728.00,0.0249
727.00,0.0252
726.00,0.0255
725.00,0.0259
724.00,0.0259
723.00,0.0257
722.00,0.0251
721.00,0.0243
720.00,0.0234
719.00,0.0226
718.00,0.0221
717.00,0.0218
716.00,0.0217
715.00,0.0217
714.00,0.0219
713.00,0.0224
712.00,0.0232
711.00,0.0243
710.00,0.0257
709.00,0.0271
708.00,0.0285
707.00,0.0298
706.00,0.0310
705.00,0.0321
704.00,0.0329
703.00,0.0333
702.00,0.0335
701.00,0.0333
700.00,0.0328
699.00,0.0321
698.00,0.0313
697.00,0.0303
696.00,0.0289
695.00,0.0274
694.00,0.0259
693.00,0.0244
692.00,0.0230
691.00,0.0215
690.00,0.0201
689.00,0.0186
688.00,0.0173
687.00,0.0160
686.00,0.0151
685.00,0.0143
684.00,0.0136
683.00,0.0128
682.00,0.0121
681.00,0.0115
680.00,0.0109
679.00,0.0104
678.00,0.0101
677.00,0.0099
676.00,0.0099
675.00,0.0100
674.00,0.0103
673.00,0.0105
672.00,0.0105
671.00,0.0103
670.00,0.0099
669.00,0.0098
668.00,0.0103
667.00,0.0110
666.00,0.0113
665.00,0.0109
664.00,0.0104
663.00,0.0101
662.00,0.0101
661.00,0.0100
660.00,0.0098
659.00,0.0094
658.00,0.0089
657.00,0.0084
656.00,0.0079
655.00,0.0075
654.00,0.0072
653.00,0.0071
652.00,0.0070
651.00,0.0070
650.00,0.0068
649.00,0.0065
648.00,0.0061
647.00,0.0058
646.00,0.0057
645.00,0.0057
644.00,0.0057
643.00,0.0057
642.00,0.0057
641.00,0.0057
640.00,0.0056
639.00,0.0056
638.00,0.0057
637.00,0.0058
636.00,0.0059
635.00,0.0061
634.00,0.0064
633.00,0.0069
632.00,0.0075
631.00,0.0082
630.00,0.0090
629.00,0.0101
628.00,0.0113
627.00,0.0125
626.00,0.0138
625.00,0.0151
624.00,0.0164
623.00,0.0177
622.00,0.0187
621.00,0.0196
620.00,0.0202
619.00,0.0207
618.00,0.0212
617.00,0.0217
616.00,0.0223
615.00,0.0230
614.00,0.0238
613.00,0.0245
612.00,0.0250
611.00,0.0256
610.00,0.0262
609.00,0.0268
608.00,0.0273
607.00,0.0276
606.00,0.0276
605.00,0.0275
604.00,0.0272
603.00,0.0266
602.00,0.0259
601.00,0.0255
600.00,0.0253
599.00,0.0253
598.00,0.0254
597.00,0.0254
596.00,0.0254
595.00,0.0255
594.00,0.0256
593.00,0.0259
592.00,0.0261
591.00,0.0264
590.00,0.0267
589.00,0.0271
588.00,0.0276
587.00,0.0284
586.00,0.0292
585.00,0.0300
584.00,0.0306
583.00,0.0313
582.00,0.0323
581.00,0.0334
580.00,0.0345
579.00,0.0353
578.00,0.0358
577.00,0.0362
576.00,0.0363
575.00,0.0363
574.00,0.0363
573.00,0.0363
572.00,0.0363
571.00,0.0363
570.00,0.0364
569.00,0.0366
568.00,0.0365
567.00,0.0363
566.00,0.0361
565.00,0.0360
564.00,0.0359
563.00,0.0357
562.00,0.0355
561.00,0.0354
560.00,0.0354
559.00,0.0354
558.00,0.0352
557.00,0.0350
556.00,0.0347
555.00,0.0344
554.00,0.0342
553.00,0.0339
552.00,0.0336
551.00,0.0334
550.00,0.0334
549.00,0.0334
548.00,0.0334
547.00,0.0334
546.00,0.0336
545.00,0.0342
544.00,0.0351
543.00,0.0361
542.00,0.0366
541.00,0.0367
540.00,0.0362
539.00,0.0354
538.00,0.0345
537.00,0.0335
536.00,0.0324
535.00,0.0314
534.00,0.0304
533.00,0.0295
532.00,0.0285
531.00,0.0275
530.00,0.0265
529.00,0.0255
528.00,0.0244
527.00,0.0236
526.00,0.0232
525.00,0.0235
524.00,0.0241
523.00,0.0247
522.00,0.0248
521.00,0.0244
520.00,0.0240
519.00,0.0239
518.00,0.0240
517.00,0.0242
516.00,0.0242
515.00,0.0241
514.00,0.0239
513.00,0.0233
512.00,0.0226
511.00,0.0218
510.00,0.0213
509.00,0.0208
508.00,0.0201
507.00,0.0196
506.00,0.0192
505.00,0.0189
504.00,0.0187
503.00,0.0187
502.00,0.0187
501.00,0.0182
500.00,0.0173
499.00,0.0164
498.00,0.0158
497.00,0.0155
496.00,0.0152
495.00,0.0147
494.00,0.0142
493.00,0.0138
492.00,0.0135
491.00,0.0135
490.00,0.0138
489.00,0.0140
488.00,0.0140
487.00,0.0140
486.00,0.0140
485.00,0.0138
484.00,0.0133
483.00,0.0129
482.00,0.0127
481.00,0.0125
480.00,0.0121
479.00,0.0117
478.00,0.0114
477.00,0.0111
476.00,0.0107
475.00,0.0102
474.00,0.0102
473.00,0.0106
472.00,0.0110
471.00,0.0107
470.00,0.0100
469.00,0.0091
468.00,0.0085
467.00,0.0083
466.00,0.0082
465.00,0.0076
464.00,0.0064
463.00,0.0056
462.00,0.0056
461.00,0.0063
460.00,0.0067
459.00,0.0067
458.00,0.0065
457.00,0.0058
456.00,0.0048
455.00,0.0036
454.00,0.0026
453.00,0.0021
452.00,0.0026
451.00,0.0037
450.00,0.0051
