Created as New Dataset,Sample 007 By Administrator Date Friday, May 30 2025
cm-1,A
4000.00,0.0072
3999.00,0.0072
3998.00,0.0072
3997.00,0.0073
3996.00,0.0073
3995.00,0.0073
3994.00,0.0074
3993.00,0.0074
3992.00,0.0074
3991.00,0.0073
3990.00,0.0073
3989.00,0.0073
3988.00,0.0073
3987.00,0.0073
3986.00,0.0073
3985.00,0.0073
3984.00,0.0073
3983.00,0.0074
3982.00,0.0074
3981.00,0.0074
3980.00,0.0074
3979.00,0.0074
3978.00,0.0075
3977.00,0.0075
3976.00,0.0075
3975.00,0.0075
3974.00,0.0075
3973.00,0.0074
3972.00,0.0074
3971.00,0.0074
3970.00,0.0074
3969.00,0.0074
3968.00,0.0074
3967.00,0.0074
3966.00,0.0074
3965.00,0.0074
3964.00,0.0075
3963.00,0.0075
3962.00,0.0075
3961.00,0.0074
3960.00,0.0074
3959.00,0.0074
3958.00,0.0074
3957.00,0.0074
3956.00,0.0074
3955.00,0.0074
3954.00,0.0075
3953.00,0.0075
3952.00,0.0075
3951.00,0.0075
3950.00,0.0075
3949.00,0.0074
3948.00,0.0074
3947.00,0.0074
3946.00,0.0074
3945.00,0.0075
3944.00,0.0075
3943.00,0.0075
3942.00,0.0075
3941.00,0.0074
3940.00,0.0074
3939.00,0.0074
3938.00,0.0074
3937.00,0.0074
3936.00,0.0075
3935.00,0.0075
3934.00,0.0075
3933.00,0.0075
3932.00,0.0075
3931.00,0.0075
3930.00,0.0075
3929.00,0.0075
3928.00,0.0075
3927.00,0.0075
3926.00,0.0075
3925.00,0.0075
3924.00,0.0075
3923.00,0.0074
3922.00,0.0074
3921.00,0.0074
3920.00,0.0074
3919.00,0.0074
3918.00,0.0074
3917.00,0.0074
3916.00,0.0073
3915.00,0.0073
3914.00,0.0073
3913.00,0.0073
3912.00,0.0074
3911.00,0.0074
3910.00,0.0074
3909.00,0.0074
3908.00,0.0074
3907.00,0.0075
3906.00,0.0075
3905.00,0.0075
3904.00,0.0075
3903.00,0.0075
3902.00,0.0075
3901.00,0.0075
3900.00,0.0074
3899.00,0.0073
3898.00,0.0073
3897.00,0.0073
3896.00,0.0073
3895.00,0.0073
3894.00,0.0073
3893.00,0.0073
3892.00,0.0073
3891.00,0.0073
3890.00,0.0073
3889.00,0.0073
3888.00,0.0074
3887.00,0.0074
3886.00,0.0075
3885.00,0.0075
3884.00,0.0075
3883.00,0.0076
3882.00,0.0076
3881.00,0.0075
3880.00,0.0074
3879.00,0.0074
3878.00,0.0074
3877.00,0.0074
3876.00,0.0075
3875.00,0.0075
3874.00,0.0076
3873.00,0.0076
3872.00,0.0076
3871.00,0.0076
3870.00,0.0076
3869.00,0.0075
3868.00,0.0075
3867.00,0.0075
3866.00,0.0076
3865.00,0.0076
3864.00,0.0076
3863.00,0.0076
3862.00,0.0076
3861.00,0.0075
3860.00,0.0075
3859.00,0.0075
3858.00,0.0075
3857.00,0.0075
3856.00,0.0075
3855.00,0.0075
3854.00,0.0075
3853.00,0.0075
3852.00,0.0074
3851.00,0.0075
3850.00,0.0075
3849.00,0.0075
3848.00,0.0075
3847.00,0.0075
3846.00,0.0075
3845.00,0.0076
3844.00,0.0076
3843.00,0.0076
3842.00,0.0076
3841.00,0.0076
3840.00,0.0076
3839.00,0.0076
3838.00,0.0075
3837.00,0.0075
3836.00,0.0076
3835.00,0.0076
3834.00,0.0076
3833.00,0.0076
3832.00,0.0075
3831.00,0.0075
3830.00,0.0075
3829.00,0.0075
3828.00,0.0076
3827.00,0.0076
3826.00,0.0076
3825.00,0.0077
3824.00,0.0078
3823.00,0.0078
3822.00,0.0078
3821.00,0.0078
3820.00,0.0078
3819.00,0.0078
3818.00,0.0078
3817.00,0.0078
3816.00,0.0077
3815.00,0.0077
3814.00,0.0076
3813.00,0.0076
3812.00,0.0076
3811.00,0.0077
3810.00,0.0077
3809.00,0.0077
3808.00,0.0077
3807.00,0.0077
3806.00,0.0077
3805.00,0.0078
3804.00,0.0078
3803.00,0.0079
3802.00,0.0079
3801.00,0.0078
3800.00,0.0078
3799.00,0.0078
3798.00,0.0078
3797.00,0.0078
3796.00,0.0078
3795.00,0.0078
3794.00,0.0078
3793.00,0.0078
3792.00,0.0078
3791.00,0.0078
3790.00,0.0078
3789.00,0.0078
3788.00,0.0079
3787.00,0.0079
3786.00,0.0079
3785.00,0.0079
3784.00,0.0079
3783.00,0.0079
3782.00,0.0080
3781.00,0.0080
3780.00,0.0080
3779.00,0.0080
3778.00,0.0080
3777.00,0.0080
3776.00,0.0080
3775.00,0.0080
3774.00,0.0080
3773.00,0.0081
3772.00,0.0082
3771.00,0.0082
3770.00,0.0083
3769.00,0.0083
3768.00,0.0084
3767.00,0.0084
3766.00,0.0083
3765.00,0.0083
3764.00,0.0083
3763.00,0.0084
3762.00,0.0085
3761.00,0.0085
3760.00,0.0086
3759.00,0.0086
3758.00,0.0086
3757.00,0.0086
3756.00,0.0086
3755.00,0.0087
3754.00,0.0087
3753.00,0.0088
3752.00,0.0088
3751.00,0.0088
3750.00,0.0088
3749.00,0.0088
3748.00,0.0088
3747.00,0.0088
3746.00,0.0088
3745.00,0.0088
3744.00,0.0088
3743.00,0.0088
3742.00,0.0088
3741.00,0.0089
3740.00,0.0090
3739.00,0.0090
3738.00,0.0090
3737.00,0.0091
3736.00,0.0091
3735.00,0.0091
3734.00,0.0091
3733.00,0.0091
3732.00,0.0091
3731.00,0.0092
3730.00,0.0092
3729.00,0.0093
3728.00,0.0093
3727.00,0.0094
3726.00,0.0095
3725.00,0.0095
3724.00,0.0096
3723.00,0.0096
3722.00,0.0097
3721.00,0.0097
3720.00,0.0097
3719.00,0.0097
3718.00,0.0098
3717.00,0.0099
3716.00,0.0101
3715.00,0.0102
3714.00,0.0103
3713.00,0.0104
3712.00,0.0106
3711.00,0.0107
3710.00,0.0108
3709.00,0.0108
3708.00,0.0109
3707.00,0.0110
3706.00,0.0110
3705.00,0.0111
3704.00,0.0112
3703.00,0.0113
3702.00,0.0114
3701.00,0.0115
3700.00,0.0117
3699.00,0.0118
3698.00,0.0119
3697.00,0.0121
3696.00,0.0123
3695.00,0.0125
3694.00,0.0127
3693.00,0.0129
3692.00,0.0130
3691.00,0.0132
3690.00,0.0134
3689.00,0.0137
3688.00,0.0139
3687.00,0.0141
3686.00,0.0143
3685.00,0.0146
3684.00,0.0149
3683.00,0.0151
3682.00,0.0154
3681.00,0.0156
3680.00,0.0159
3679.00,0.0161
3678.00,0.0164
3677.00,0.0168
3676.00,0.0172
3675.00,0.0178
3674.00,0.0182
3673.00,0.0187
3672.00,0.0190
3671.00,0.0195
3670.00,0.0200
3669.00,0.0205
3668.00,0.0210
3667.00,0.0214
3666.00,0.0219
3665.00,0.0224
3664.00,0.0228
3663.00,0.0233
3662.00,0.0238
3661.00,0.0243
3660.00,0.0248
3659.00,0.0254
3658.00,0.0260
3657.00,0.0267
3656.00,0.0275
3655.00,0.0283
3654.00,0.0289
3653.00,0.0294
3652.00,0.0299
3651.00,0.0306
3650.00,0.0316
3649.00,0.0328
3648.00,0.0340
3647.00,0.0350
3646.00,0.0358
3645.00,0.0364
3644.00,0.0369
3643.00,0.0375
3642.00,0.0382
3641.00,0.0389
3640.00,0.0397
3639.00,0.0405
3638.00,0.0413
3637.00,0.0421
3636.00,0.0430
3635.00,0.0438
3634.00,0.0446
3633.00,0.0453
3632.00,0.0459
3631.00,0.0467
3630.00,0.0477
3629.00,0.0491
3628.00,0.0505
3627.00,0.0517
3626.00,0.0527
3625.00,0.0534
3624.00,0.0541
3623.00,0.0547
3622.00,0.0554
3621.00,0.0562
3620.00,0.0571
3619.00,0.0583
3618.00,0.0594
3617.00,0.0604
3616.00,0.0613
3615.00,0.0622
3614.00,0.0630
3613.00,0.0639
3612.00,0.0648
3611.00,0.0657
3610.00,0.0667
3609.00,0.0677
3608.00,0.0688
3607.00,0.0699
3606.00,0.0709
3605.00,0.0718
3604.00,0.0725
3603.00,0.0732
3602.00,0.0740
3601.00,0.0749
3600.00,0.0759
3599.00,0.0768
3598.00,0.0777
3597.00,0.0785
3596.00,0.0794
3595.00,0.0803
3594.00,0.0813
3593.00,0.0822
3592.00,0.0829
3591.00,0.0835
3590.00,0.0841
3589.00,0.0849
3588.00,0.0860
3587.00,0.0874
3586.00,0.0886
3585.00,0.0897
3584.00,0.0906
3583.00,0.0913
3582.00,0.0919
3581.00,0.0926
3580.00,0.0934
3579.00,0.0942
3578.00,0.0950
3577.00,0.0959
3576.00,0.0967
3575.00,0.0975
3574.00,0.0983
3573.00,0.0990
3572.00,0.0996
3571.00,0.1002
3570.00,0.1007
3569.00,0.1014
3568.00,0.1024
3567.00,0.1038
3566.00,0.1051
3565.00,0.1064
3564.00,0.1073
3563.00,0.1081
3562.00,0.1088
3561.00,0.1094
3560.00,0.1101
3559.00,0.1108
3558.00,0.1115
3557.00,0.1122
3556.00,0.1129
3555.00,0.1136
3554.00,0.1144
3553.00,0.1153
3552.00,0.1162
3551.00,0.1171
3550.00,0.1178
3549.00,0.1185
3548.00,0.1192
3547.00,0.1200
3546.00,0.1209
3545.00,0.1219
3544.00,0.1228
3543.00,0.1237
3542.00,0.1244
3541.00,0.1251
3540.00,0.1258
3539.00,0.1264
3538.00,0.1271
3537.00,0.1278
3536.00,0.1286
3535.00,0.1294
3534.00,0.1301
3533.00,0.1308
3532.00,0.1315
3531.00,0.1321
3530.00,0.1328
3529.00,0.1336
3528.00,0.1345
3527.00,0.1355
3526.00,0.1364
3525.00,0.1372
3524.00,0.1381
3523.00,0.1389
3522.00,0.1397
3521.00,0.1404
3520.00,0.1410
3519.00,0.1417
3518.00,0.1423
3517.00,0.1430
3516.00,0.1438
3515.00,0.1445
3514.00,0.1452
3513.00,0.1459
3512.00,0.1465
3511.00,0.1472
3510.00,0.1480
3509.00,0.1488
3508.00,0.1496
3507.00,0.1503
3506.00,0.1509
3505.00,0.1516
3504.00,0.1524
3503.00,0.1532
3502.00,0.1541
3501.00,0.1549
3500.00,0.1556
3499.00,0.1564
3498.00,0.1570
3497.00,0.1577
3496.00,0.1584
3495.00,0.1590
3494.00,0.1597
3493.00,0.1604
3492.00,0.1610
3491.00,0.1617
3490.00,0.1623
3489.00,0.1630
3488.00,0.1637
3487.00,0.1644
3486.00,0.1651
3485.00,0.1657
3484.00,0.1664
3483.00,0.1670
3482.00,0.1678
3481.00,0.1686
3480.00,0.1693
3479.00,0.1700
3478.00,0.1706
3477.00,0.1711
3476.00,0.1717
3475.00,0.1724
3474.00,0.1730
3473.00,0.1737
3472.00,0.1744
3471.00,0.1751
3470.00,0.1758
3469.00,0.1765
3468.00,0.1771
3467.00,0.1777
3466.00,0.1783
3465.00,0.1788
3464.00,0.1793
3463.00,0.1799
3462.00,0.1806
3461.00,0.1813
3460.00,0.1819
3459.00,0.1824
3458.00,0.1830
3457.00,0.1835
3456.00,0.1841
3455.00,0.1846
3454.00,0.1852
3453.00,0.1857
3452.00,0.1863
3451.00,0.1868
3450.00,0.1872
3449.00,0.1877
3448.00,0.1883
3447.00,0.1889
3446.00,0.1896
3445.00,0.1901
3444.00,0.1907
3443.00,0.1911
3442.00,0.1917
3441.00,0.1922
3440.00,0.1928
3439.00,0.1933
3438.00,0.1939
3437.00,0.1944
3436.00,0.1948
3435.00,0.1952
3434.00,0.1956
3433.00,0.1960
3432.00,0.1964
3431.00,0.1968
3430.00,0.1973
3429.00,0.1977
3428.00,0.1980
3427.00,0.1984
3426.00,0.1986
3425.00,0.1989
3424.00,0.1992
3423.00,0.1995
3422.00,0.1999
3421.00,0.2003
3420.00,0.2007
3419.00,0.2011
3418.00,0.2014
3417.00,0.2016
3416.00,0.2019
3415.00,0.2022
3414.00,0.2026
3413.00,0.2029
3412.00,0.2032
3411.00,0.2035
3410.00,0.2037
3409.00,0.2039
3408.00,0.2040
3407.00,0.2042
3406.00,0.2043
3405.00,0.2045
3404.00,0.2048
3403.00,0.2050
3402.00,0.2052
3401.00,0.2054
3400.00,0.2054
3399.00,0.2055
3398.00,0.2055
3397.00,0.2056
3396.00,0.2056
3395.00,0.2057
3394.00,0.2058
3393.00,0.2059
3392.00,0.2059
3391.00,0.2058
3390.00,0.2057
3389.00,0.2056
3388.00,0.2054
3387.00,0.2053
3386.00,0.2053
3385.00,0.2053
3384.00,0.2052
3383.00,0.2051
3382.00,0.2050
3381.00,0.2049
3380.00,0.2048
3379.00,0.2046
3378.00,0.2045
3377.00,0.2044
3376.00,0.2042
3375.00,0.2040
3374.00,0.2038
3373.00,0.2036
3372.00,0.2035
3371.00,0.2033
3370.00,0.2031
3369.00,0.2028
3368.00,0.2025
3367.00,0.2021
3366.00,0.2018
3365.00,0.2015
3364.00,0.2012
3363.00,0.2009
3362.00,0.2005
3361.00,0.2002
3360.00,0.1998
3359.00,0.1994
3358.00,0.1990
3357.00,0.1986
3356.00,0.1982
3355.00,0.1978
3354.00,0.1975
3353.00,0.1971
3352.00,0.1967
3351.00,0.1963
3350.00,0.1959
3349.00,0.1954
3348.00,0.1949
3347.00,0.1945
3346.00,0.1941
3345.00,0.1937
3344.00,0.1932
3343.00,0.1927
3342.00,0.1922
3341.00,0.1918
3340.00,0.1913
3339.00,0.1908
3338.00,0.1903
3337.00,0.1898
3336.00,0.1893
3335.00,0.1887
3334.00,0.1882
3333.00,0.1877
3332.00,0.1871
3331.00,0.1866
3330.00,0.1862
3329.00,0.1857
3328.00,0.1852
3327.00,0.1848
3326.00,0.1843
3325.00,0.1838
3324.00,0.1832
3323.00,0.1827
3322.00,0.1822
3321.00,0.1817
3320.00,0.1812
3319.00,0.1807
3318.00,0.1802
3317.00,0.1797
3316.00,0.1792
3315.00,0.1787
3314.00,0.1782
3313.00,0.1778
3312.00,0.1773
3311.00,0.1768
3310.00,0.1764
3309.00,0.1759
3308.00,0.1755
3307.00,0.1750
3306.00,0.1745
3305.00,0.1740
3304.00,0.1735
3303.00,0.1730
3302.00,0.1726
3301.00,0.1721
3300.00,0.1716
3299.00,0.1712
3298.00,0.1708
3297.00,0.1703
3296.00,0.1699
3295.00,0.1695
3294.00,0.1691
3293.00,0.1687
3292.00,0.1683
3291.00,0.1678
3290.00,0.1674
3289.00,0.1670
3288.00,0.1666
3287.00,0.1662
3286.00,0.1658
3285.00,0.1654
3284.00,0.1649
3283.00,0.1645
3282.00,0.1640
3281.00,0.1635
3280.00,0.1630
3279.00,0.1625
3278.00,0.1621
3277.00,0.1617
3276.00,0.1612
3275.00,0.1608
3274.00,0.1605
3273.00,0.1601
3272.00,0.1597
3271.00,0.1593
3270.00,0.1588
3269.00,0.1583
3268.00,0.1578
3267.00,0.1573
3266.00,0.1569
3265.00,0.1564
3264.00,0.1560
3263.00,0.1555
3262.00,0.1551
3261.00,0.1547
3260.00,0.1543
3259.00,0.1538
3258.00,0.1533
3257.00,0.1528
3256.00,0.1522
3255.00,0.1517
3254.00,0.1512
3253.00,0.1507
3252.00,0.1502
3251.00,0.1497
3250.00,0.1492
3249.00,0.1486
3248.00,0.1481
3247.00,0.1475
3246.00,0.1470
3245.00,0.1465
3244.00,0.1460
3243.00,0.1454
3242.00,0.1449
3241.00,0.1443
3240.00,0.1436
3239.00,0.1430
3238.00,0.1424
3237.00,0.1418
3236.00,0.1412
3235.00,0.1406
3234.00,0.1399
3233.00,0.1393
3232.00,0.1386
3231.00,0.1380
3230.00,0.1374
3229.00,0.1368
3228.00,0.1361
3227.00,0.1355
3226.00,0.1348
3225.00,0.1342
3224.00,0.1335
3223.00,0.1328
3222.00,0.1321
3221.00,0.1314
3220.00,0.1307
3219.00,0.1300
3218.00,0.1293
3217.00,0.1285
3216.00,0.1277
3215.00,0.1270
3214.00,0.1263
3213.00,0.1256
3212.00,0.1249
3211.00,0.1242
3210.00,0.1234
3209.00,0.1226
3208.00,0.1219
3207.00,0.1211
3206.00,0.1203
3205.00,0.1195
3204.00,0.1188
3203.00,0.1180
3202.00,0.1173
3201.00,0.1166
3200.00,0.1159
3199.00,0.1151
3198.00,0.1144
3197.00,0.1136
3196.00,0.1128
3195.00,0.1121
3194.00,0.1114
3193.00,0.1107
3192.00,0.1099
3191.00,0.1092
3190.00,0.1084
3189.00,0.1076
3188.00,0.1068
3187.00,0.1060
3186.00,0.1053
3185.00,0.1045
3184.00,0.1037
3183.00,0.1030
3182.00,0.1022
3181.00,0.1015
3180.00,0.1007
3179.00,0.1000
3178.00,0.0993
3177.00,0.0985
3176.00,0.0978
3175.00,0.0971
3174.00,0.0964
3173.00,0.0957
3172.00,0.0950
3171.00,0.0943
3170.00,0.0935
3169.00,0.0928
3168.00,0.0920
3167.00,0.0913
3166.00,0.0906
3165.00,0.0899
3164.00,0.0893
3163.00,0.0886
3162.00,0.0880
3161.00,0.0873
3160.00,0.0866
3159.00,0.0860
3158.00,0.0853
3157.00,0.0847
3156.00,0.0840
3155.00,0.0833
3154.00,0.0827
3153.00,0.0821
3152.00,0.0815
3151.00,0.0809
3150.00,0.0802
3149.00,0.0795
3148.00,0.0789
3147.00,0.0782
3146.00,0.0776
3145.00,0.0770
3144.00,0.0764
3143.00,0.0758
3142.00,0.0752
3141.00,0.0747
3140.00,0.0741
3139.00,0.0735
3138.00,0.0730
3137.00,0.0724
3136.00,0.0718
3135.00,0.0712
3134.00,0.0707
3133.00,0.0701
3132.00,0.0696
3131.00,0.0691
3130.00,0.0685
3129.00,0.0680
3128.00,0.0675
3127.00,0.0670
3126.00,0.0665
3125.00,0.0659
3124.00,0.0654
3123.00,0.0649
3122.00,0.0644
3121.00,0.0639
3120.00,0.0634
3119.00,0.0630
3118.00,0.0625
3117.00,0.0620
3116.00,0.0615
3115.00,0.0610
3114.00,0.0605
3113.00,0.0600
3112.00,0.0595
3111.00,0.0590
3110.00,0.0586
3109.00,0.0582
3108.00,0.0578
3107.00,0.0573
3106.00,0.0569
3105.00,0.0565
3104.00,0.0560
3103.00,0.0556
3102.00,0.0552
3101.00,0.0548
3100.00,0.0544
3099.00,0.0539
3098.00,0.0535
3097.00,0.0531
3096.00,0.0527
3095.00,0.0523
3094.00,0.0520
3093.00,0.0516
3092.00,0.0512
3091.00,0.0508
3090.00,0.0505
3089.00,0.0501
3088.00,0.0498
3087.00,0.0494
3086.00,0.0490
3085.00,0.0487
3084.00,0.0483
3083.00,0.0480
3082.00,0.0476
3081.00,0.0473
3080.00,0.0470
3079.00,0.0467
3078.00,0.0464
3077.00,0.0460
3076.00,0.0457
3075.00,0.0453
3074.00,0.0450
3073.00,0.0446
3072.00,0.0443
3071.00,0.0439
3070.00,0.0436
3069.00,0.0433
3068.00,0.0430
3067.00,0.0427
3066.00,0.0425
3065.00,0.0422
3064.00,0.0419
3063.00,0.0417
3062.00,0.0414
3061.00,0.0411
3060.00,0.0408
3059.00,0.0405
3058.00,0.0401
3057.00,0.0399
3056.00,0.0396
3055.00,0.0393
3054.00,0.0390
3053.00,0.0388
3052.00,0.0385
3051.00,0.0383
3050.00,0.0380
3049.00,0.0378
3048.00,0.0376
3047.00,0.0373
3046.00,0.0370
3045.00,0.0367
3044.00,0.0365
3043.00,0.0362
3042.00,0.0360
3041.00,0.0358
3040.00,0.0355
3039.00,0.0353
3038.00,0.0351
3037.00,0.0349
3036.00,0.0347
3035.00,0.0345
3034.00,0.0343
3033.00,0.0341
3032.00,0.0339
3031.00,0.0337
3030.00,0.0335
3029.00,0.0333
3028.00,0.0332
3027.00,0.0330
3026.00,0.0328
3025.00,0.0326
3024.00,0.0324
3023.00,0.0322
3022.00,0.0320
3021.00,0.0318
3020.00,0.0317
3019.00,0.0315
3018.00,0.0314
3017.00,0.0313
3016.00,0.0312
3015.00,0.0311
3014.00,0.0310
3013.00,0.0309
3012.00,0.0308
3011.00,0.0307
3010.00,0.0306
3009.00,0.0305
3008.00,0.0303
3007.00,0.0302
3006.00,0.0301
3005.00,0.0300
3004.00,0.0299
3003.00,0.0298
3002.00,0.0297
3001.00,0.0296
3000.00,0.0295
2999.00,0.0295
2998.00,0.0294
2997.00,0.0294
2996.00,0.0293
2995.00,0.0293
2994.00,0.0292
2993.00,0.0292
2992.00,0.0292
2991.00,0.0291
2990.00,0.0291
2989.00,0.0291
2988.00,0.0291
2987.00,0.0292
2986.00,0.0292
2985.00,0.0292
2984.00,0.0293
2983.00,0.0293
2982.00,0.0294
2981.00,0.0294
2980.00,0.0294
2979.00,0.0294
2978.00,0.0294
2977.00,0.0294
2976.00,0.0295
2975.00,0.0295
2974.00,0.0295
2973.00,0.0296
2972.00,0.0296
2971.00,0.0297
2970.00,0.0297
2969.00,0.0298
2968.00,0.0298
2967.00,0.0297
2966.00,0.0297
2965.00,0.0297
2964.00,0.0297
2963.00,0.0297
2962.00,0.0298
2961.00,0.0298
2960.00,0.0298
2959.00,0.0299
2958.00,0.0299
2957.00,0.0299
2956.00,0.0298
2955.00,0.0298
2954.00,0.0297
2953.00,0.0297
2952.00,0.0296
2951.00,0.0295
2950.00,0.0295
2949.00,0.0294
2948.00,0.0294
2947.00,0.0294
2946.00,0.0293
2945.00,0.0293
2944.00,0.0292
2943.00,0.0292
2942.00,0.0292
2941.00,0.0292
2940.00,0.0292
2939.00,0.0291
2938.00,0.0291
2937.00,0.0291
2936.00,0.0290
2935.00,0.0290
2934.00,0.0291
2933.00,0.0291
2932.00,0.0291
2931.00,0.0291
2930.00,0.0291
2929.00,0.0291
2928.00,0.0291
2927.00,0.0290
2926.00,0.0290
2925.00,0.0290
2924.00,0.0290
2923.00,0.0290
2922.00,0.0290
2921.00,0.0290
2920.00,0.0290
2919.00,0.0289
2918.00,0.0287
2917.00,0.0286
2916.00,0.0284
2915.00,0.0282
2914.00,0.0280
2913.00,0.0278
2912.00,0.0276
2911.00,0.0274
2910.00,0.0273
2909.00,0.0271
2908.00,0.0269
2907.00,0.0268
2906.00,0.0266
2905.00,0.0265
2904.00,0.0264
2903.00,0.0262
2902.00,0.0261
2901.00,0.0259
2900.00,0.0257
2899.00,0.0256
2898.00,0.0255
2897.00,0.0253
2896.00,0.0252
2895.00,0.0251
2894.00,0.0249
2893.00,0.0248
2892.00,0.0246
2891.00,0.0244
2890.00,0.0242
2889.00,0.0241
2888.00,0.0239
2887.00,0.0237
2886.00,0.0235
2885.00,0.0233
2884.00,0.0232
2883.00,0.0230
2882.00,0.0229
2881.00,0.0227
2880.00,0.0225
2879.00,0.0224
2878.00,0.0223
2877.00,0.0221
2876.00,0.0219
2875.00,0.0218
2874.00,0.0216
2873.00,0.0214
2872.00,0.0213
2871.00,0.0212
2870.00,0.0210
2869.00,0.0209
2868.00,0.0207
2867.00,0.0206
2866.00,0.0204
2865.00,0.0203
2864.00,0.0202
2863.00,0.0200
2862.00,0.0199
2861.00,0.0199
2860.00,0.0198
2859.00,0.0198
2858.00,0.0198
2857.00,0.0198
2856.00,0.0198
2855.00,0.0198
2854.00,0.0198
2853.00,0.0197
2852.00,0.0197
2851.00,0.0196
2850.00,0.0194
2849.00,0.0192
2848.00,0.0189
2847.00,0.0187
2846.00,0.0185
2845.00,0.0182
2844.00,0.0180
2843.00,0.0177
2842.00,0.0174
2841.00,0.0172
2840.00,0.0171
2839.00,0.0169
2838.00,0.0168
2837.00,0.0167
2836.00,0.0166
2835.00,0.0165
2834.00,0.0164
2833.00,0.0163
2832.00,0.0163
2831.00,0.0162
2830.00,0.0161
2829.00,0.0160
2828.00,0.0159
2827.00,0.0158
2826.00,0.0157
2825.00,0.0156
2824.00,0.0156
2823.00,0.0155
2822.00,0.0154
2821.00,0.0154
2820.00,0.0153
2819.00,0.0152
2818.00,0.0152
2817.00,0.0151
2816.00,0.0151
2815.00,0.0150
2814.00,0.0150
2813.00,0.0149
2812.00,0.0148
2811.00,0.0147
2810.00,0.0146
2809.00,0.0145
2808.00,0.0145
2807.00,0.0144
2806.00,0.0144
2805.00,0.0144
2804.00,0.0144
2803.00,0.0143
2802.00,0.0142
2801.00,0.0142
2800.00,0.0141
2799.00,0.0141
2798.00,0.0140
2797.00,0.0140
2796.00,0.0140
2795.00,0.0139
2794.00,0.0139
2793.00,0.0139
2792.00,0.0138
2791.00,0.0137
2790.00,0.0137
2789.00,0.0136
2788.00,0.0135
2787.00,0.0135
2786.00,0.0134
2785.00,0.0134
2784.00,0.0134
2783.00,0.0133
2782.00,0.0133
2781.00,0.0132
2780.00,0.0132
2779.00,0.0132
2778.00,0.0131
2777.00,0.0131
2776.00,0.0130
2775.00,0.0130
2774.00,0.0129
2773.00,0.0129
2772.00,0.0129
2771.00,0.0128
2770.00,0.0128
2769.00,0.0128
2768.00,0.0128
2767.00,0.0128
2766.00,0.0127
2765.00,0.0127
2764.00,0.0126
2763.00,0.0126
2762.00,0.0125
2761.00,0.0124
2760.00,0.0124
2759.00,0.0124
2758.00,0.0123
2757.00,0.0123
2756.00,0.0123
2755.00,0.0123
2754.00,0.0123
2753.00,0.0123
2752.00,0.0123
2751.00,0.0122
2750.00,0.0122
2749.00,0.0121
2748.00,0.0121
2747.00,0.0121
2746.00,0.0120
2745.00,0.0120
2744.00,0.0120
2743.00,0.0120
2742.00,0.0120
2741.00,0.0120
2740.00,0.0120
2739.00,0.0119
2738.00,0.0119
2737.00,0.0119
2736.00,0.0119
2735.00,0.0119
2734.00,0.0119
2733.00,0.0119
2732.00,0.0119
2731.00,0.0119
2730.00,0.0118
2729.00,0.0118
2728.00,0.0117
2727.00,0.0117
2726.00,0.0116
2725.00,0.0116
2724.00,0.0116
2723.00,0.0116
2722.00,0.0115
2721.00,0.0115
2720.00,0.0115
2719.00,0.0115
2718.00,0.0114
2717.00,0.0114
2716.00,0.0114
2715.00,0.0113
2714.00,0.0113
2713.00,0.0113
2712.00,0.0113
2711.00,0.0113
2710.00,0.0112
2709.00,0.0112
2708.00,0.0112
2707.00,0.0112
2706.00,0.0111
2705.00,0.0111
2704.00,0.0111
2703.00,0.0111
2702.00,0.0111
2701.00,0.0111
2700.00,0.0110
2699.00,0.0110
2698.00,0.0110
2697.00,0.0110
2696.00,0.0110
2695.00,0.0110
2694.00,0.0109
2693.00,0.0109
2692.00,0.0109
2691.00,0.0109
2690.00,0.0108
2689.00,0.0108
2688.00,0.0108
2687.00,0.0108
2686.00,0.0108
2685.00,0.0108
2684.00,0.0108
2683.00,0.0108
2682.00,0.0107
2681.00,0.0107
2680.00,0.0107
2679.00,0.0107
2678.00,0.0106
2677.00,0.0106
2676.00,0.0106
2675.00,0.0106
2674.00,0.0106
2673.00,0.0106
2672.00,0.0106
2671.00,0.0106
2670.00,0.0106
2669.00,0.0105
2668.00,0.0106
2667.00,0.0106
2666.00,0.0106
2665.00,0.0106
2664.00,0.0106
2663.00,0.0106
2662.00,0.0107
2661.00,0.0107
2660.00,0.0108
2659.00,0.0108
2658.00,0.0108
2657.00,0.0108
2656.00,0.0108
2655.00,0.0109
2654.00,0.0109
2653.00,0.0108
2652.00,0.0108
2651.00,0.0107
2650.00,0.0107
2649.00,0.0106
2648.00,0.0106
2647.00,0.0106
2646.00,0.0105
2645.00,0.0105
2644.00,0.0105
2643.00,0.0105
2642.00,0.0104
2641.00,0.0104
2640.00,0.0104
2639.00,0.0103
2638.00,0.0103
2637.00,0.0103
2636.00,0.0102
2635.00,0.0102
2634.00,0.0101
2633.00,0.0101
2632.00,0.0101
2631.00,0.0101
2630.00,0.0100
2629.00,0.0100
2628.00,0.0100
2627.00,0.0099
2626.00,0.0099
2625.00,0.0099
2624.00,0.0098
2623.00,0.0097
2622.00,0.0097
2621.00,0.0097
2620.00,0.0097
2619.00,0.0097
2618.00,0.0097
2617.00,0.0097
2616.00,0.0096
2615.00,0.0096
2614.00,0.0096
2613.00,0.0095
2612.00,0.0094
2611.00,0.0093
2610.00,0.0093
2609.00,0.0092
2608.00,0.0092
2607.00,0.0092
2606.00,0.0093
2605.00,0.0093
2604.00,0.0093
2603.00,0.0093
2602.00,0.0092
2601.00,0.0092
2600.00,0.0092
2599.00,0.0092
2598.00,0.0091
2597.00,0.0091
2596.00,0.0090
2595.00,0.0090
2594.00,0.0090
2593.00,0.0090
2592.00,0.0090
2591.00,0.0089
2590.00,0.0089
2589.00,0.0089
2588.00,0.0089
2587.00,0.0089
2586.00,0.0089
2585.00,0.0089
2584.00,0.0088
2583.00,0.0088
2582.00,0.0087
2581.00,0.0087
2580.00,0.0087
2579.00,0.0087
2578.00,0.0087
2577.00,0.0087
2576.00,0.0087
2575.00,0.0087
2574.00,0.0087
2573.00,0.0087
2572.00,0.0087
2571.00,0.0086
2570.00,0.0086
2569.00,0.0086
2568.00,0.0085
2567.00,0.0086
2566.00,0.0086
2565.00,0.0086
2564.00,0.0086
2563.00,0.0086
2562.00,0.0085
2561.00,0.0084
2560.00,0.0083
2559.00,0.0083
2558.00,0.0083
2557.00,0.0083
2556.00,0.0082
2555.00,0.0082
2554.00,0.0082
2553.00,0.0083
2552.00,0.0084
2551.00,0.0084
2550.00,0.0085
2549.00,0.0085
2548.00,0.0085
2547.00,0.0085
2546.00,0.0085
2545.00,0.0085
2544.00,0.0084
2543.00,0.0083
2542.00,0.0082
2541.00,0.0081
2540.00,0.0081
2539.00,0.0082
2538.00,0.0082
2537.00,0.0082
2536.00,0.0082
2535.00,0.0082
2534.00,0.0082
2533.00,0.0082
2532.00,0.0082
2531.00,0.0082
2530.00,0.0082
2529.00,0.0082
2528.00,0.0082
2527.00,0.0081
2526.00,0.0081
2525.00,0.0081
2524.00,0.0081
2523.00,0.0081
2522.00,0.0081
2521.00,0.0081
2520.00,0.0080
2519.00,0.0080
2518.00,0.0080
2517.00,0.0081
2516.00,0.0081
2515.00,0.0082
2514.00,0.0082
2513.00,0.0082
2512.00,0.0082
2511.00,0.0082
2510.00,0.0081
2509.00,0.0080
2508.00,0.0080
2507.00,0.0080
2506.00,0.0081
2505.00,0.0081
2504.00,0.0081
2503.00,0.0081
2502.00,0.0080
2501.00,0.0080
2500.00,0.0080
2499.00,0.0080
2498.00,0.0080
2497.00,0.0081
2496.00,0.0081
2495.00,0.0081
2494.00,0.0081
2493.00,0.0080
2492.00,0.0080
2491.00,0.0080
2490.00,0.0080
2489.00,0.0079
2488.00,0.0079
2487.00,0.0079
2486.00,0.0079
2485.00,0.0080
2484.00,0.0080
2483.00,0.0080
2482.00,0.0079
2481.00,0.0079
2480.00,0.0079
2479.00,0.0080
2478.00,0.0080
2477.00,0.0079
2476.00,0.0079
2475.00,0.0079
2474.00,0.0079
2473.00,0.0078
2472.00,0.0078
2471.00,0.0078
2470.00,0.0078
2469.00,0.0078
2468.00,0.0078
2467.00,0.0079
2466.00,0.0079
2465.00,0.0079
2464.00,0.0079
2463.00,0.0080
2462.00,0.0080
2461.00,0.0080
2460.00,0.0081
2459.00,0.0081
2458.00,0.0080
2457.00,0.0080
2456.00,0.0080
2455.00,0.0080
2454.00,0.0080
2453.00,0.0081
2452.00,0.0081
2451.00,0.0081
2450.00,0.0081
2449.00,0.0080
2448.00,0.0079
2447.00,0.0079
2446.00,0.0079
2445.00,0.0079
2444.00,0.0079
2443.00,0.0078
2442.00,0.0078
2441.00,0.0077
2440.00,0.0077
2439.00,0.0078
2438.00,0.0078
2437.00,0.0078
2436.00,0.0079
2435.00,0.0079
2434.00,0.0079
2433.00,0.0079
2432.00,0.0078
2431.00,0.0077
2430.00,0.0077
2429.00,0.0078
2428.00,0.0078
2427.00,0.0078
2426.00,0.0078
2425.00,0.0078
2424.00,0.0078
2423.00,0.0078
2422.00,0.0078
2421.00,0.0078
2420.00,0.0078
2419.00,0.0078
2418.00,0.0078
2417.00,0.0078
2416.00,0.0078
2415.00,0.0078
2414.00,0.0079
2413.00,0.0079
2412.00,0.0079
2411.00,0.0080
2410.00,0.0080
2409.00,0.0080
2408.00,0.0079
2407.00,0.0079
2406.00,0.0078
2405.00,0.0078
2404.00,0.0077
2403.00,0.0077
2402.00,0.0077
2401.00,0.0078
2400.00,0.0079
2399.00,0.0079
2398.00,0.0079
2397.00,0.0079
2396.00,0.0079
2395.00,0.0079
2394.00,0.0079
2393.00,0.0079
2392.00,0.0079
2391.00,0.0079
2390.00,0.0080
2389.00,0.0080
2388.00,0.0080
2387.00,0.0080
2386.00,0.0080
2385.00,0.0080
2384.00,0.0079
2383.00,0.0078
2382.00,0.0078
2381.00,0.0077
2380.00,0.0077
2379.00,0.0077
2378.00,0.0077
2377.00,0.0077
2376.00,0.0078
2375.00,0.0080
2374.00,0.0081
2373.00,0.0081
2372.00,0.0081
2371.00,0.0081
2370.00,0.0080
2369.00,0.0079
2368.00,0.0078
2367.00,0.0078
2366.00,0.0078
2365.00,0.0079
2364.00,0.0081
2363.00,0.0083
2362.00,0.0084
2361.00,0.0085
2360.00,0.0086
2359.00,0.0085
2358.00,0.0085
2357.00,0.0085
2356.00,0.0086
2355.00,0.0086
2354.00,0.0087
2353.00,0.0087
2352.00,0.0087
2351.00,0.0088
2350.00,0.0088
2349.00,0.0089
2348.00,0.0089
2347.00,0.0090
2346.00,0.0091
2345.00,0.0092
2344.00,0.0093
2343.00,0.0094
2342.00,0.0094
2341.00,0.0095
2340.00,0.0095
2339.00,0.0096
2338.00,0.0097
2337.00,0.0097
2336.00,0.0096
2335.00,0.0096
2334.00,0.0096
2333.00,0.0097
2332.00,0.0097
2331.00,0.0097
2330.00,0.0097
2329.00,0.0098
2328.00,0.0101
2327.00,0.0105
2326.00,0.0110
2325.00,0.0115
2324.00,0.0118
2323.00,0.0119
2322.00,0.0117
2321.00,0.0115
2320.00,0.0112
2319.00,0.0110
2318.00,0.0109
2317.00,0.0108
2316.00,0.0108
2315.00,0.0107
2314.00,0.0107
2313.00,0.0106
2312.00,0.0105
2311.00,0.0105
2310.00,0.0105
2309.00,0.0105
2308.00,0.0105
2307.00,0.0105
2306.00,0.0106
2305.00,0.0107
2304.00,0.0108
2303.00,0.0108
2302.00,0.0109
2301.00,0.0109
2300.00,0.0109
2299.00,0.0110
2298.00,0.0111
2297.00,0.0112
2296.00,0.0113
2295.00,0.0113
2294.00,0.0114
2293.00,0.0115
2292.00,0.0116
2291.00,0.0118
2290.00,0.0119
2289.00,0.0121
2288.00,0.0122
2287.00,0.0124
2286.00,0.0125
2285.00,0.0125
2284.00,0.0125
2283.00,0.0123
2282.00,0.0121
2281.00,0.0119
2280.00,0.0118
2279.00,0.0117
2278.00,0.0117
2277.00,0.0117
2276.00,0.0117
2275.00,0.0116
2274.00,0.0115
2273.00,0.0115
2272.00,0.0115
2271.00,0.0115
2270.00,0.0116
2269.00,0.0116
2268.00,0.0116
2267.00,0.0116
2266.00,0.0114
2265.00,0.0113
2264.00,0.0112
2263.00,0.0111
2262.00,0.0111
2261.00,0.0111
2260.00,0.0111
2259.00,0.0112
2258.00,0.0112
2257.00,0.0112
2256.00,0.0112
2255.00,0.0110
2254.00,0.0109
2253.00,0.0108
2252.00,0.0108
2251.00,0.0109
2250.00,0.0110
2249.00,0.0110
2248.00,0.0110
2247.00,0.0109
2246.00,0.0109
2245.00,0.0110
2244.00,0.0111
2243.00,0.0112
2242.00,0.0113
2241.00,0.0113
2240.00,0.0115
2239.00,0.0116
2238.00,0.0117
2237.00,0.0116
2236.00,0.0114
2235.00,0.0112
2234.00,0.0111
2233.00,0.0111
2232.00,0.0112
2231.00,0.0112
2230.00,0.0111
2229.00,0.0111
2228.00,0.0111
2227.00,0.0112
2226.00,0.0113
2225.00,0.0114
2224.00,0.0113
2223.00,0.0113
2222.00,0.0113
2221.00,0.0113
2220.00,0.0113
2219.00,0.0113
2218.00,0.0114
2217.00,0.0116
2216.00,0.0118
2215.00,0.0119
2214.00,0.0119
2213.00,0.0117
2212.00,0.0115
2211.00,0.0113
2210.00,0.0111
2209.00,0.0110
2208.00,0.0110
2207.00,0.0111
2206.00,0.0113
2205.00,0.0114
2204.00,0.0116
2203.00,0.0118
2202.00,0.0119
2201.00,0.0119
2200.00,0.0118
2199.00,0.0116
2198.00,0.0114
2197.00,0.0114
2196.00,0.0114
2195.00,0.0115
2194.00,0.0116
2193.00,0.0116
2192.00,0.0117
2191.00,0.0117
2190.00,0.0117
2189.00,0.0118
2188.00,0.0121
2187.00,0.0123
2186.00,0.0124
2185.00,0.0122
2184.00,0.0119
2183.00,0.0116
2182.00,0.0112
2181.00,0.0109
2180.00,0.0108
2179.00,0.0107
2178.00,0.0106
2177.00,0.0105
2176.00,0.0105
2175.00,0.0108
2174.00,0.0112
2173.00,0.0116
2172.00,0.0119
2171.00,0.0121
2170.00,0.0122
2169.00,0.0121
2168.00,0.0120
2167.00,0.0119
2166.00,0.0120
2165.00,0.0123
2164.00,0.0127
2163.00,0.0130
2162.00,0.0129
2161.00,0.0122
2160.00,0.0110
2159.00,0.0092
2158.00,0.0076
2157.00,0.0067
2156.00,0.0065
2155.00,0.0067
2154.00,0.0071
2153.00,0.0075
2152.00,0.0079
2151.00,0.0083
2150.00,0.0086
2149.00,0.0091
2148.00,0.0095
2147.00,0.0097
2146.00,0.0097
2145.00,0.0097
2144.00,0.0098
2143.00,0.0099
2142.00,0.0099
2141.00,0.0099
2140.00,0.0099
2139.00,0.0100
2138.00,0.0101
2137.00,0.0102
2136.00,0.0102
2135.00,0.0101
2134.00,0.0099
2133.00,0.0099
2132.00,0.0102
2131.00,0.0105
2130.00,0.0108
2129.00,0.0110
2128.00,0.0113
2127.00,0.0115
2126.00,0.0118
2125.00,0.0120
2124.00,0.0122
2123.00,0.0123
2122.00,0.0125
2121.00,0.0126
2120.00,0.0128
2119.00,0.0130
2118.00,0.0132
2117.00,0.0134
2116.00,0.0137
2115.00,0.0139
2114.00,0.0140
2113.00,0.0140
2112.00,0.0139
2111.00,0.0138
2110.00,0.0138
2109.00,0.0138
2108.00,0.0138
2107.00,0.0139
2106.00,0.0138
2105.00,0.0138
2104.00,0.0138
2103.00,0.0137
2102.00,0.0137
2101.00,0.0137
2100.00,0.0136
2099.00,0.0135
2098.00,0.0134
2097.00,0.0134
2096.00,0.0133
2095.00,0.0132
2094.00,0.0130
2093.00,0.0130
2092.00,0.0131
2091.00,0.0132
2090.00,0.0134
2089.00,0.0135
2088.00,0.0136
2087.00,0.0137
2086.00,0.0137
2085.00,0.0138
2084.00,0.0139
2083.00,0.0138
2082.00,0.0138
2081.00,0.0137
2080.00,0.0137
2079.00,0.0138
2078.00,0.0138
2077.00,0.0137
2076.00,0.0135
2075.00,0.0134
2074.00,0.0134
2073.00,0.0134
2072.00,0.0136
2071.00,0.0136
2070.00,0.0135
2069.00,0.0133
2068.00,0.0131
2067.00,0.0129
2066.00,0.0127
2065.00,0.0126
2064.00,0.0126
2063.00,0.0125
2062.00,0.0124
2061.00,0.0124
2060.00,0.0123
2059.00,0.0123
2058.00,0.0124
2057.00,0.0125
2056.00,0.0125
2055.00,0.0124
2054.00,0.0122
2053.00,0.0123
2052.00,0.0126
2051.00,0.0129
2050.00,0.0129
2049.00,0.0126
2048.00,0.0122
2047.00,0.0116
2046.00,0.0110
2045.00,0.0107
2044.00,0.0105
2043.00,0.0104
2042.00,0.0102
2041.00,0.0100
2040.00,0.0100
2039.00,0.0101
2038.00,0.0102
2037.00,0.0102
2036.00,0.0100
2035.00,0.0096
2034.00,0.0090
2033.00,0.0084
2032.00,0.0081
2031.00,0.0079
2030.00,0.0079
2029.00,0.0080
2028.00,0.0081
2027.00,0.0082
2026.00,0.0082
2025.00,0.0081
2024.00,0.0081
2023.00,0.0081
2022.00,0.0082
2021.00,0.0083
2020.00,0.0084
2019.00,0.0083
2018.00,0.0082
2017.00,0.0080
2016.00,0.0080
2015.00,0.0081
2014.00,0.0082
2013.00,0.0084
2012.00,0.0084
2011.00,0.0083
2010.00,0.0081
2009.00,0.0077
2008.00,0.0074
2007.00,0.0069
2006.00,0.0066
2005.00,0.0065
2004.00,0.0068
2003.00,0.0073
2002.00,0.0077
2001.00,0.0081
2000.00,0.0083
1999.00,0.0086
1998.00,0.0087
1997.00,0.0089
1996.00,0.0091
1995.00,0.0094
1994.00,0.0096
1993.00,0.0097
1992.00,0.0097
1991.00,0.0095
1990.00,0.0093
1989.00,0.0093
1988.00,0.0094
1987.00,0.0095
1986.00,0.0096
1985.00,0.0096
1984.00,0.0097
1983.00,0.0099
1982.00,0.0102
1981.00,0.0106
1980.00,0.0108
1979.00,0.0105
1978.00,0.0098
1977.00,0.0089
1976.00,0.0082
1975.00,0.0078
1974.00,0.0076
1973.00,0.0075
1972.00,0.0074
1971.00,0.0074
1970.00,0.0074
1969.00,0.0076
1968.00,0.0079
1967.00,0.0079
1966.00,0.0078
1965.00,0.0076
1964.00,0.0075
1963.00,0.0075
1962.00,0.0075
1961.00,0.0074
1960.00,0.0072
1959.00,0.0069
1958.00,0.0067
1957.00,0.0068
1956.00,0.0071
1955.00,0.0075
1954.00,0.0078
1953.00,0.0080
1952.00,0.0080
1951.00,0.0079
1950.00,0.0078
1949.00,0.0078
1948.00,0.0078
1947.00,0.0079
1946.00,0.0080
1945.00,0.0081
1944.00,0.0083
1943.00,0.0082
1942.00,0.0080
1941.00,0.0078
1940.00,0.0077
1939.00,0.0077
1938.00,0.0078
1937.00,0.0078
1936.00,0.0079
1935.00,0.0080
1934.00,0.0080
1933.00,0.0080
1932.00,0.0081
1931.00,0.0081
1930.00,0.0081
1929.00,0.0080
1928.00,0.0080
1927.00,0.0079
1926.00,0.0080
1925.00,0.0081
1924.00,0.0083
1923.00,0.0084
1922.00,0.0083
1921.00,0.0082
1920.00,0.0082
1919.00,0.0082
1918.00,0.0081
1917.00,0.0081
1916.00,0.0082
1915.00,0.0083
1914.00,0.0083
1913.00,0.0083
1912.00,0.0082
1911.00,0.0082
1910.00,0.0082
1909.00,0.0082
1908.00,0.0082
1907.00,0.0082
1906.00,0.0080
1905.00,0.0079
1904.00,0.0079
1903.00,0.0079
1902.00,0.0079
1901.00,0.0078
1900.00,0.0078
1899.00,0.0077
1898.00,0.0077
1897.00,0.0077
1896.00,0.0078
1895.00,0.0079
1894.00,0.0078
1893.00,0.0078
1892.00,0.0078
1891.00,0.0079
1890.00,0.0078
1889.00,0.0077
1888.00,0.0077
1887.00,0.0077
1886.00,0.0077
1885.00,0.0076
1884.00,0.0076
1883.00,0.0075
1882.00,0.0075
1881.00,0.0075
1880.00,0.0076
1879.00,0.0075
1878.00,0.0074
1877.00,0.0074
1876.00,0.0074
1875.00,0.0074
1874.00,0.0074
1873.00,0.0074
1872.00,0.0074
1871.00,0.0074
1870.00,0.0074
1869.00,0.0073
1868.00,0.0072
1867.00,0.0072
1866.00,0.0072
1865.00,0.0073
1864.00,0.0074
1863.00,0.0074
1862.00,0.0074
1861.00,0.0073
1860.00,0.0074
1859.00,0.0074
1858.00,0.0074
1857.00,0.0074
1856.00,0.0074
1855.00,0.0074
1854.00,0.0074
1853.00,0.0074
1852.00,0.0074
1851.00,0.0074
1850.00,0.0073
1849.00,0.0073
1848.00,0.0074
1847.00,0.0075
1846.00,0.0075
1845.00,0.0074
1844.00,0.0073
1843.00,0.0071
1842.00,0.0071
1841.00,0.0071
1840.00,0.0072
1839.00,0.0072
1838.00,0.0072
1837.00,0.0072
1836.00,0.0073
1835.00,0.0073
1834.00,0.0073
1833.00,0.0073
1832.00,0.0073
1831.00,0.0073
1830.00,0.0072
1829.00,0.0071
1828.00,0.0071
1827.00,0.0072
1826.00,0.0072
1825.00,0.0073
1824.00,0.0073
1823.00,0.0073
1822.00,0.0073
1821.00,0.0074
1820.00,0.0073
1819.00,0.0072
1818.00,0.0071
1817.00,0.0070
1816.00,0.0070
1815.00,0.0071
1814.00,0.0072
1813.00,0.0073
1812.00,0.0074
1811.00,0.0074
1810.00,0.0073
1809.00,0.0072
1808.00,0.0072
1807.00,0.0072
1806.00,0.0073
1805.00,0.0073
1804.00,0.0074
1803.00,0.0074
1802.00,0.0075
1801.00,0.0074
1800.00,0.0074
1799.00,0.0074
1798.00,0.0074
1797.00,0.0074
1796.00,0.0076
1795.00,0.0076
1794.00,0.0076
1793.00,0.0074
1792.00,0.0072
1791.00,0.0070
1790.00,0.0070
1789.00,0.0070
1788.00,0.0072
1787.00,0.0073
1786.00,0.0073
1785.00,0.0074
1784.00,0.0074
1783.00,0.0074
1782.00,0.0074
1781.00,0.0075
1780.00,0.0075
1779.00,0.0075
1778.00,0.0074
1777.00,0.0074
1776.00,0.0075
1775.00,0.0076
1774.00,0.0077
1773.00,0.0078
1772.00,0.0078
1771.00,0.0075
1770.00,0.0074
1769.00,0.0074
1768.00,0.0075
1767.00,0.0076
1766.00,0.0077
1765.00,0.0078
1764.00,0.0079
1763.00,0.0080
1762.00,0.0079
1761.00,0.0078
1760.00,0.0079
1759.00,0.0080
1758.00,0.0082
1757.00,0.0083
1756.00,0.0084
1755.00,0.0085
1754.00,0.0087
1753.00,0.0089
1752.00,0.0092
1751.00,0.0094
1750.00,0.0095
1749.00,0.0096
1748.00,0.0097
1747.00,0.0099
1746.00,0.0100
1745.00,0.0102
1744.00,0.0104
1743.00,0.0106
1742.00,0.0106
1741.00,0.0107
1740.00,0.0107
1739.00,0.0108
1738.00,0.0109
1737.00,0.0112
1736.00,0.0115
1735.00,0.0118
1734.00,0.0119
1733.00,0.0119
1732.00,0.0121
1731.00,0.0124
1730.00,0.0126
1729.00,0.0128
1728.00,0.0129
1727.00,0.0131
1726.00,0.0133
1725.00,0.0136
1724.00,0.0140
1723.00,0.0143
1722.00,0.0146
1721.00,0.0149
1720.00,0.0152
1719.00,0.0157
1718.00,0.0162
1717.00,0.0167
1716.00,0.0172
1715.00,0.0174
1714.00,0.0176
1713.00,0.0179
1712.00,0.0184
1711.00,0.0189
1710.00,0.0193
1709.00,0.0198
1708.00,0.0203
1707.00,0.0209
1706.00,0.0214
1705.00,0.0220
1704.00,0.0225
1703.00,0.0230
1702.00,0.0234
1701.00,0.0240
1700.00,0.0248
1699.00,0.0258
1698.00,0.0270
1697.00,0.0283
1696.00,0.0297
1695.00,0.0308
1694.00,0.0315
1693.00,0.0322
1692.00,0.0331
1691.00,0.0341
1690.00,0.0353
1689.00,0.0364
1688.00,0.0375
1687.00,0.0386
1686.00,0.0397
1685.00,0.0412
1684.00,0.0433
1683.00,0.0450
1682.00,0.0461
1681.00,0.0474
1680.00,0.0487
1679.00,0.0500
1678.00,0.0511
1677.00,0.0522
1676.00,0.0536
1675.00,0.0555
1674.00,0.0573
1673.00,0.0589
1672.00,0.0604
1671.00,0.0620
1670.00,0.0640
1669.00,0.0662
1668.00,0.0683
1667.00,0.0700
1666.00,0.0714
1665.00,0.0728
1664.00,0.0744
1663.00,0.0764
1662.00,0.0785
1661.00,0.0805
1660.00,0.0823
1659.00,0.0839
1658.00,0.0853
1657.00,0.0863
1656.00,0.0870
1655.00,0.0878
1654.00,0.0897
1653.00,0.0935
1652.00,0.0970
1651.00,0.0988
1650.00,0.0993
1649.00,0.0994
1648.00,0.1003
1647.00,0.1021
1646.00,0.1043
1645.00,0.1058
1644.00,0.1068
1643.00,0.1073
1642.00,0.1077
1641.00,0.1081
1640.00,0.1085
1639.00,0.1087
1638.00,0.1087
1637.00,0.1088
1636.00,0.1096
1635.00,0.1106
1634.00,0.1110
1633.00,0.1109
1632.00,0.1104
1631.00,0.1098
1630.00,0.1089
1629.00,0.1081
1628.00,0.1073
1627.00,0.1064
1626.00,0.1054
1625.00,0.1042
1624.00,0.1029
1623.00,0.1017
1622.00,0.1004
1621.00,0.0990
1620.00,0.0974
1619.00,0.0957
1618.00,0.0939
1617.00,0.0922
1616.00,0.0906
1615.00,0.0889
1614.00,0.0871
1613.00,0.0851
1612.00,0.0831
1611.00,0.0812
1610.00,0.0793
1609.00,0.0775
1608.00,0.0756
1607.00,0.0738
1606.00,0.0720
1605.00,0.0701
1604.00,0.0682
1603.00,0.0664
1602.00,0.0646
1601.00,0.0628
1600.00,0.0610
1599.00,0.0593
1598.00,0.0576
1597.00,0.0560
1596.00,0.0544
1595.00,0.0528
1594.00,0.0513
1593.00,0.0498
1592.00,0.0483
1591.00,0.0469
1590.00,0.0456
1589.00,0.0442
1588.00,0.0429
1587.00,0.0417
1586.00,0.0405
1585.00,0.0394
1584.00,0.0383
1583.00,0.0373
1582.00,0.0364
1581.00,0.0356
1580.00,0.0347
1579.00,0.0340
1578.00,0.0334
1577.00,0.0328
1576.00,0.0320
1575.00,0.0310
1574.00,0.0301
1573.00,0.0294
1572.00,0.0287
1571.00,0.0280
1570.00,0.0272
1569.00,0.0265
1568.00,0.0258
1567.00,0.0254
1566.00,0.0250
1565.00,0.0246
1564.00,0.0241
1563.00,0.0237
1562.00,0.0234
1561.00,0.0229
1560.00,0.0221
1559.00,0.0213
1558.00,0.0207
1557.00,0.0203
1556.00,0.0203
1555.00,0.0203
1554.00,0.0202
1553.00,0.0199
1552.00,0.0197
1551.00,0.0195
1550.00,0.0193
1549.00,0.0190
1548.00,0.0186
1547.00,0.0184
1546.00,0.0182
1545.00,0.0180
1544.00,0.0178
1543.00,0.0176
1542.00,0.0174
1541.00,0.0172
1540.00,0.0168
1539.00,0.0162
1538.00,0.0157
1537.00,0.0154
1536.00,0.0152
1535.00,0.0149
1534.00,0.0144
1533.00,0.0139
1532.00,0.0135
1531.00,0.0132
1530.00,0.0131
1529.00,0.0130
1528.00,0.0127
1527.00,0.0125
1526.00,0.0122
1525.00,0.0120
1524.00,0.0118
1523.00,0.0116
1522.00,0.0115
1521.00,0.0112
1520.00,0.0108
1519.00,0.0105
1518.00,0.0104
1517.00,0.0103
1516.00,0.0101
1515.00,0.0098
1514.00,0.0096
1513.00,0.0095
1512.00,0.0094
1511.00,0.0092
1510.00,0.0092
1509.00,0.0092
1508.00,0.0092
1507.00,0.0091
1506.00,0.0085
1505.00,0.0078
1504.00,0.0077
1503.00,0.0078
1502.00,0.0078
1501.00,0.0077
1500.00,0.0075
1499.00,0.0073
1498.00,0.0072
1497.00,0.0071
1496.00,0.0070
1495.00,0.0070
1494.00,0.0071
1493.00,0.0071
1492.00,0.0072
1491.00,0.0072
1490.00,0.0073
1489.00,0.0074
1488.00,0.0074
1487.00,0.0074
1486.00,0.0075
1485.00,0.0076
1484.00,0.0078
1483.00,0.0081
1482.00,0.0083
1481.00,0.0085
1480.00,0.0088
1479.00,0.0090
1478.00,0.0092
1477.00,0.0094
1476.00,0.0096
1475.00,0.0099
1474.00,0.0102
1473.00,0.0105
1472.00,0.0107
1471.00,0.0108
1470.00,0.0110
1469.00,0.0113
1468.00,0.0115
1467.00,0.0117
1466.00,0.0117
1465.00,0.0118
1464.00,0.0118
1463.00,0.0120
1462.00,0.0122
1461.00,0.0124
1460.00,0.0125
1459.00,0.0126
1458.00,0.0127
1457.00,0.0130
1456.00,0.0130
1455.00,0.0130
1454.00,0.0131
1453.00,0.0131
1452.00,0.0130
1451.00,0.0130
1450.00,0.0129
1449.00,0.0127
1448.00,0.0126
1447.00,0.0126
1446.00,0.0126
1445.00,0.0126
1444.00,0.0127
1443.00,0.0127
1442.00,0.0128
1441.00,0.0129
1440.00,0.0130
1439.00,0.0131
1438.00,0.0132
1437.00,0.0133
1436.00,0.0135
1435.00,0.0138
1434.00,0.0141
1433.00,0.0144
1432.00,0.0147
1431.00,0.0149
1430.00,0.0151
1429.00,0.0153
1428.00,0.0154
1427.00,0.0157
1426.00,0.0159
1425.00,0.0162
1424.00,0.0164
1423.00,0.0165
1422.00,0.0166
1421.00,0.0167
1420.00,0.0167
1419.00,0.0168
1418.00,0.0169
1417.00,0.0170
1416.00,0.0171
1415.00,0.0171
1414.00,0.0171
1413.00,0.0171
1412.00,0.0172
1411.00,0.0172
1410.00,0.0172
1409.00,0.0172
1408.00,0.0173
1407.00,0.0174
1406.00,0.0175
1405.00,0.0177
1404.00,0.0177
1403.00,0.0178
1402.00,0.0177
1401.00,0.0177
1400.00,0.0175
1399.00,0.0173
1398.00,0.0172
1397.00,0.0170
1396.00,0.0167
1395.00,0.0165
1394.00,0.0162
1393.00,0.0160
1392.00,0.0159
1391.00,0.0158
1390.00,0.0158
1389.00,0.0159
1388.00,0.0160
1387.00,0.0163
1386.00,0.0167
1385.00,0.0170
1384.00,0.0174
1383.00,0.0178
1382.00,0.0182
1381.00,0.0187
1380.00,0.0192
1379.00,0.0196
1378.00,0.0200
1377.00,0.0203
1376.00,0.0206
1375.00,0.0209
1374.00,0.0212
1373.00,0.0213
1372.00,0.0214
1371.00,0.0214
1370.00,0.0215
1369.00,0.0215
1368.00,0.0216
1367.00,0.0215
1366.00,0.0214
1365.00,0.0213
1364.00,0.0212
1363.00,0.0211
1362.00,0.0210
1361.00,0.0207
1360.00,0.0204
1359.00,0.0202
1358.00,0.0199
1357.00,0.0197
1356.00,0.0195
1355.00,0.0192
1354.00,0.0189
1353.00,0.0184
1352.00,0.0180
1351.00,0.0174
1350.00,0.0168
1349.00,0.0162
1348.00,0.0156
1347.00,0.0149
1346.00,0.0142
1345.00,0.0135
1344.00,0.0128
1343.00,0.0122
1342.00,0.0117
1341.00,0.0113
1340.00,0.0108
1339.00,0.0104
1338.00,0.0100
1337.00,0.0096
1336.00,0.0091
1335.00,0.0087
1334.00,0.0082
1333.00,0.0079
1332.00,0.0076
1331.00,0.0073
1330.00,0.0072
1329.00,0.0071
1328.00,0.0070
1327.00,0.0070
1326.00,0.0070
1325.00,0.0070
1324.00,0.0071
1323.00,0.0071
1322.00,0.0072
1321.00,0.0074
1320.00,0.0076
1319.00,0.0077
1318.00,0.0078
1317.00,0.0079
1316.00,0.0080
1315.00,0.0080
1314.00,0.0081
1313.00,0.0081
1312.00,0.0082
1311.00,0.0082
1310.00,0.0082
1309.00,0.0083
1308.00,0.0084
1307.00,0.0086
1306.00,0.0089
1305.00,0.0091
1304.00,0.0094
1303.00,0.0099
1302.00,0.0104
1301.00,0.0110
1300.00,0.0117
1299.00,0.0125
1298.00,0.0134
1297.00,0.0144
1296.00,0.0155
1295.00,0.0167
1294.00,0.0181
1293.00,0.0197
1292.00,0.0213
1291.00,0.0231
1290.00,0.0251
1289.00,0.0272
1288.00,0.0296
1287.00,0.0321
1286.00,0.0348
1285.00,0.0376
1284.00,0.0407
1283.00,0.0438
1282.00,0.0471
1281.00,0.0504
1280.00,0.0539
1279.00,0.0574
1278.00,0.0610
1277.00,0.0647
1276.00,0.0685
1275.00,0.0722
1274.00,0.0760
1273.00,0.0798
1272.00,0.0836
1271.00,0.0873
1270.00,0.0909
1269.00,0.0945
1268.00,0.0979
1267.00,0.1012
1266.00,0.1045
1265.00,0.1076
1264.00,0.1106
1263.00,0.1134
1262.00,0.1160
1261.00,0.1186
1260.00,0.1210
1259.00,0.1233
1258.00,0.1253
1257.00,0.1271
1256.00,0.1288
1255.00,0.1303
1254.00,0.1317
1253.00,0.1330
1252.00,0.1342
1251.00,0.1354
1250.00,0.1364
1249.00,0.1374
1248.00,0.1384
1247.00,0.1394
1246.00,0.1404
1245.00,0.1414
1244.00,0.1425
1243.00,0.1435
1242.00,0.1446
1241.00,0.1458
1240.00,0.1469
1239.00,0.1481
1238.00,0.1491
1237.00,0.1502
1236.00,0.1513
1235.00,0.1523
1234.00,0.1533
1233.00,0.1542
1232.00,0.1551
1231.00,0.1558
1230.00,0.1565
1229.00,0.1570
1228.00,0.1575
1227.00,0.1577
1226.00,0.1578
1225.00,0.1577
1224.00,0.1575
1223.00,0.1570
1222.00,0.1563
1221.00,0.1554
1220.00,0.1543
1219.00,0.1529
1218.00,0.1511
1217.00,0.1489
1216.00,0.1463
1215.00,0.1433
1214.00,0.1400
1213.00,0.1366
1212.00,0.1329
1211.00,0.1290
1210.00,0.1249
1209.00,0.1206
1208.00,0.1161
1207.00,0.1116
1206.00,0.1070
1205.00,0.1023
1204.00,0.0976
1203.00,0.0929
1202.00,0.0884
1201.00,0.0840
1200.00,0.0798
1199.00,0.0760
1198.00,0.0725
1197.00,0.0694
1196.00,0.0667
1195.00,0.0644
1194.00,0.0624
1193.00,0.0607
1192.00,0.0591
1191.00,0.0578
1190.00,0.0565
1189.00,0.0554
1188.00,0.0544
1187.00,0.0535
1186.00,0.0528
1185.00,0.0522
1184.00,0.0517
1183.00,0.0514
1182.00,0.0512
1181.00,0.0511
1180.00,0.0512
1179.00,0.0514
1178.00,0.0518
1177.00,0.0523
1176.00,0.0530
1175.00,0.0537
1174.00,0.0546
1173.00,0.0558
1172.00,0.0571
1171.00,0.0586
1170.00,0.0604
1169.00,0.0624
1168.00,0.0646
1167.00,0.0669
1166.00,0.0694
1165.00,0.0719
1164.00,0.0744
1163.00,0.0768
1162.00,0.0790
1161.00,0.0811
1160.00,0.0830
1159.00,0.0846
1158.00,0.0860
1157.00,0.0871
1156.00,0.0879
1155.00,0.0885
1154.00,0.0888
1153.00,0.0890
1152.00,0.0888
1151.00,0.0885
1150.00,0.0879
1149.00,0.0871
1148.00,0.0862
1147.00,0.0851
1146.00,0.0839
1145.00,0.0826
1144.00,0.0814
1143.00,0.0802
1142.00,0.0790
1141.00,0.0780
1140.00,0.0773
1139.00,0.0768
1138.00,0.0767
1137.00,0.0768
1136.00,0.0774
1135.00,0.0782
1134.00,0.0793
1133.00,0.0806
1132.00,0.0819
1131.00,0.0832
1130.00,0.0844
1129.00,0.0853
1128.00,0.0859
1127.00,0.0861
1126.00,0.0860
1125.00,0.0855
1124.00,0.0846
1123.00,0.0834
1122.00,0.0820
1121.00,0.0805
1120.00,0.0789
1119.00,0.0772
1118.00,0.0755
1117.00,0.0738
1116.00,0.0722
1115.00,0.0706
1114.00,0.0690
1113.00,0.0677
1112.00,0.0665
1111.00,0.0655
1110.00,0.0647
1109.00,0.0643
1108.00,0.0640
1107.00,0.0640
1106.00,0.0642
1105.00,0.0647
1104.00,0.0654
1103.00,0.0662
1102.00,0.0674
1101.00,0.0687
1100.00,0.0703
1099.00,0.0719
1098.00,0.0737
1097.00,0.0756
1096.00,0.0775
1095.00,0.0793
1094.00,0.0813
1093.00,0.0834
1092.00,0.0856
1091.00,0.0880
1090.00,0.0904
1089.00,0.0931
1088.00,0.0958
1087.00,0.0987
1086.00,0.1017
1085.00,0.1049
1084.00,0.1082
1083.00,0.1117
1082.00,0.1154
1081.00,0.1191
1080.00,0.1231
1079.00,0.1270
1078.00,0.1310
1077.00,0.1349
1076.00,0.1384
1075.00,0.1416
1074.00,0.1444
1073.00,0.1467
1072.00,0.1485
1071.00,0.1498
1070.00,0.1505
1069.00,0.1508
1068.00,0.1506
1067.00,0.1499
1066.00,0.1487
1065.00,0.1472
1064.00,0.1455
1063.00,0.1438
1062.00,0.1422
1061.00,0.1409
1060.00,0.1401
1059.00,0.1396
1058.00,0.1395
1057.00,0.1399
1056.00,0.1406
1055.00,0.1414
1054.00,0.1424
1053.00,0.1436
1052.00,0.1449
1051.00,0.1464
1050.00,0.1480
1049.00,0.1498
1048.00,0.1519
1047.00,0.1543
1046.00,0.1569
1045.00,0.1596
1044.00,0.1623
1043.00,0.1648
1042.00,0.1670
1041.00,0.1689
1040.00,0.1706
1039.00,0.1719
1038.00,0.1733
1037.00,0.1749
1036.00,0.1767
1035.00,0.1788
1034.00,0.1811
1033.00,0.1837
1032.00,0.1866
1031.00,0.1895
1030.00,0.1925
1029.00,0.1954
1028.00,0.1979
1027.00,0.2000
1026.00,0.2017
1025.00,0.2031
1024.00,0.2043
1023.00,0.2051
1022.00,0.2055
1021.00,0.2058
1020.00,0.2058
1019.00,0.2053
1018.00,0.2045
1017.00,0.2031
1016.00,0.2013
1015.00,0.1989
1014.00,0.1961
1013.00,0.1931
1012.00,0.1898
1011.00,0.1863
1010.00,0.1827
1009.00,0.1794
1008.00,0.1761
1007.00,0.1730
1006.00,0.1699
1005.00,0.1668
1004.00,0.1637
1003.00,0.1604
1002.00,0.1569
1001.00,0.1531
1000.00,0.1491
999.00,0.1448
998.00,0.1403
997.00,0.1357
996.00,0.1311
995.00,0.1263
994.00,0.1216
993.00,0.1170
992.00,0.1125
991.00,0.1080
990.00,0.1036
989.00,0.0992
988.00,0.0948
987.00,0.0905
986.00,0.0862
985.00,0.0821
984.00,0.0781
983.00,0.0745
982.00,0.0711
981.00,0.0682
980.00,0.0656
979.00,0.0633
978.00,0.0612
977.00,0.0592
976.00,0.0573
975.00,0.0555
974.00,0.0537
973.00,0.0520
972.00,0.0501
971.00,0.0480
970.00,0.0456
969.00,0.0430
968.00,0.0400
967.00,0.0368
966.00,0.0335
965.00,0.0300
964.00,0.0266
963.00,0.0234
962.00,0.0205
961.00,0.0179
960.00,0.0158
959.00,0.0138
958.00,0.0122
957.00,0.0108
956.00,0.0096
955.00,0.0087
954.00,0.0081
953.00,0.0077
952.00,0.0075
951.00,0.0075
950.00,0.0077
949.00,0.0081
948.00,0.0087
947.00,0.0095
946.00,0.0106
945.00,0.0119
944.00,0.0135
943.00,0.0154
942.00,0.0177
941.00,0.0203
940.00,0.0233
939.00,0.0264
938.00,0.0296
937.00,0.0329
936.00,0.0360
935.00,0.0388
934.00,0.0411
933.00,0.0428
932.00,0.0438
931.00,0.0444
930.00,0.0445
929.00,0.0442
928.00,0.0436
927.00,0.0427
926.00,0.0415
925.00,0.0402
924.00,0.0389
923.00,0.0376
922.00,0.0363
921.00,0.0352
920.00,0.0341
919.00,0.0332
918.00,0.0324
917.00,0.0317
916.00,0.0312
915.00,0.0308
914.00,0.0304
913.00,0.0302
912.00,0.0302
911.00,0.0302
910.00,0.0302
909.00,0.0302
908.00,0.0301
907.00,0.0300
906.00,0.0299
905.00,0.0296
904.00,0.0292
903.00,0.0288
902.00,0.0283
901.00,0.0277
900.00,0.0271
899.00,0.0264
898.00,0.0258
897.00,0.0251
896.00,0.0246
895.00,0.0242
894.00,0.0239
893.00,0.0237
892.00,0.0236
891.00,0.0234
890.00,0.0231
889.00,0.0228
888.00,0.0223
887.00,0.0217
886.00,0.0209
885.00,0.0198
884.00,0.0184
883.00,0.0167
882.00,0.0151
881.00,0.0135
880.00,0.0120
879.00,0.0108
878.00,0.0099
877.00,0.0094
876.00,0.0092
875.00,0.0091
874.00,0.0089
873.00,0.0087
872.00,0.0083
871.00,0.0079
870.00,0.0076
869.00,0.0072
868.00,0.0068
867.00,0.0064
866.00,0.0062
865.00,0.0061
864.00,0.0061
863.00,0.0064
862.00,0.0069
861.00,0.0076
860.00,0.0085
859.00,0.0095
858.00,0.0106
857.00,0.0121
856.00,0.0137
855.00,0.0154
854.00,0.0174
853.00,0.0195
852.00,0.0217
851.00,0.0239
850.00,0.0261
849.00,0.0281
848.00,0.0299
847.00,0.0316
846.00,0.0332
845.00,0.0346
844.00,0.0356
843.00,0.0364
842.00,0.0372
841.00,0.0380
840.00,0.0387
839.00,0.0395
838.00,0.0405
837.00,0.0415
836.00,0.0426
835.00,0.0436
834.00,0.0444
833.00,0.0448
832.00,0.0450
831.00,0.0447
830.00,0.0443
829.00,0.0436
828.00,0.0425
827.00,0.0412
826.00,0.0397
825.00,0.0382
824.00,0.0367
823.00,0.0352
822.00,0.0339
821.00,0.0325
820.00,0.0311
819.00,0.0296
818.00,0.0282
817.00,0.0270
816.00,0.0259
815.00,0.0249
814.00,0.0240
813.00,0.0231
812.00,0.0221
811.00,0.0212
810.00,0.0204
809.00,0.0195
808.00,0.0186
807.00,0.0177
806.00,0.0167
805.00,0.0158
804.00,0.0148
803.00,0.0139
802.00,0.0129
801.00,0.0120
800.00,0.0111
799.00,0.0102
798.00,0.0095
797.00,0.0088
796.00,0.0082
795.00,0.0076
794.00,0.0072
793.00,0.0070
792.00,0.0069
791.00,0.0069
790.00,0.0069
789.00,0.0070
788.00,0.0071
787.00,0.0074
786.00,0.0078
785.00,0.0082
784.00,0.0087
783.00,0.0091
782.00,0.0097
781.00,0.0103
780.00,0.0109
779.00,0.0116
778.00,0.0122
777.00,0.0130
776.00,0.0137
775.00,0.0142
774.00,0.0147
773.00,0.0150
772.00,0.0152
771.00,0.0152
770.00,0.0150
769.00,0.0146
768.00,0.0140
767.00,0.0134
766.00,0.0127
765.00,0.0120
764.00,0.0113
763.00,0.0108
762.00,0.0104
761.00,0.0100
760.00,0.0095
759.00,0.0092
758.00,0.0088
757.00,0.0086
756.00,0.0086
755.00,0.0088
754.00,0.0090
753.00,0.0094
752.00,0.0099
751.00,0.0104
750.00,0.0110
749.00,0.0117
748.00,0.0123
747.00,0.0128
746.00,0.0132
745.00,0.0135
744.00,0.0136
743.00,0.0138
742.00,0.0140
741.00,0.0143
740.00,0.0148
739.00,0.0153
738.00,0.0159
737.00,0.0166
736.00,0.0173
735.00,0.0180
734.00,0.0188
733.00,0.0197
732.00,0.0205
731.00,0.0214
730.00,0.0222
729.00,0.0230
728.00,0.0238
727.00,0.0245
726.00,0.0251
725.00,0.0257
724.00,0.0260
723.00,0.0261
722.00,0.0260
721.00,0.0257
720.00,0.0252
719.00,0.0247
718.00,0.0241
717.00,0.0235
716.00,0.0230
715.00,0.0226
714.00,0.0223
713.00,0.0220
712.00,0.0219
711.00,0.0219
710.00,0.0222
709.00,0.0227
708.00,0.0232
707.00,0.0239
706.00,0.0245
705.00,0.0251
704.00,0.0254
703.00,0.0256
702.00,0.0257
701.00,0.0258
700.00,0.0259
699.00,0.0257
698.00,0.0253
697.00,0.0248
696.00,0.0241
695.00,0.0234
694.00,0.0227
693.00,0.0220
692.00,0.0212
691.00,0.0204
690.00,0.0195
689.00,0.0187
688.00,0.0177
687.00,0.0168
686.00,0.0161
685.00,0.0154
684.00,0.0147
683.00,0.0142
682.00,0.0137
681.00,0.0135
680.00,0.0132
679.00,0.0130
678.00,0.0127
677.00,0.0125
676.00,0.0124
675.00,0.0125
674.00,0.0127
673.00,0.0127
672.00,0.0124
671.00,0.0117
670.00,0.0109
669.00,0.0107
668.00,0.0119
667.00,0.0133
666.00,0.0135
665.00,0.0127
664.00,0.0116
663.00,0.0108
662.00,0.0104
661.00,0.0101
660.00,0.0099
659.00,0.0097
658.00,0.0094
657.00,0.0090
656.00,0.0085
655.00,0.0080
654.00,0.0076
653.00,0.0073
652.00,0.0070
651.00,0.0068
650.00,0.0068
649.00,0.0069
648.00,0.0070
647.00,0.0071
646.00,0.0071
645.00,0.0070
644.00,0.0068
643.00,0.0067
642.00,0.0067
641.00,0.0067
640.00,0.0069
639.00,0.0072
638.00,0.0076
637.00,0.0080
636.00,0.0085
635.00,0.0091
634.00,0.0102
633.00,0.0117
632.00,0.0135
631.00,0.0156
630.00,0.0180
629.00,0.0206
628.00,0.0234
627.00,0.0262
626.00,0.0290
625.00,0.0317
624.00,0.0343
623.00,0.0369
622.00,0.0393
621.00,0.0415
620.00,0.0435
619.00,0.0452
618.00,0.0466
617.00,0.0479
616.00,0.0490
615.00,0.0500
614.00,0.0506
613.00,0.0508
612.00,0.0507
611.00,0.0499
610.00,0.0488
609.00,0.0475
608.00,0.0462
607.00,0.0450
606.00,0.0437
605.00,0.0427
604.00,0.0419
603.00,0.0409
602.00,0.0397
601.00,0.0385
600.00,0.0376
599.00,0.0372
598.00,0.0372
597.00,0.0375
596.00,0.0381
595.00,0.0391
594.00,0.0402
593.00,0.0418
592.00,0.0439
591.00,0.0463
590.00,0.0489
589.00,0.0516
588.00,0.0543
587.00,0.0571
586.00,0.0599
585.00,0.0628
584.00,0.0658
583.00,0.0688
582.00,0.0714
581.00,0.0737
580.00,0.0756
579.00,0.0768
578.00,0.0772
577.00,0.0770
576.00,0.0767
575.00,0.0763
574.00,0.0758
573.00,0.0752
572.00,0.0745
571.00,0.0740
570.00,0.0735
569.00,0.0732
568.00,0.0729
567.00,0.0725
566.00,0.0717
565.00,0.0710
564.00,0.0703
563.00,0.0696
562.00,0.0688
561.00,0.0681
560.00,0.0678
559.00,0.0677
558.00,0.0676
557.00,0.0671
556.00,0.0660
555.00,0.0645
554.00,0.0629
553.00,0.0615
552.00,0.0606
551.00,0.0599
550.00,0.0594
549.00,0.0590
548.00,0.0590
547.00,0.0590
546.00,0.0587
545.00,0.0580
544.00,0.0571
543.00,0.0561
542.00,0.0552
541.00,0.0545
540.00,0.0537
539.00,0.0527
538.00,0.0514
537.00,0.0502
536.00,0.0495
535.00,0.0489
534.00,0.0479
533.00,0.0465
532.00,0.0450
531.00,0.0434
530.00,0.0418
529.00,0.0403
528.00,0.0392
527.00,0.0387
526.00,0.0387
525.00,0.0386
524.00,0.0380
523.00,0.0369
522.00,0.0357
521.00,0.0350
520.00,0.0350
519.00,0.0350
518.00,0.0346
517.00,0.0338
516.00,0.0330
515.00,0.0322
514.00,0.0312
513.00,0.0301
512.00,0.0292
511.00,0.0286
510.00,0.0282
509.00,0.0277
508.00,0.0274
507.00,0.0272
506.00,0.0267
505.00,0.0259
504.00,0.0253
503.00,0.0253
502.00,0.0258
501.00,0.0262
500.00,0.0257
499.00,0.0245
498.00,0.0232
497.00,0.0228
496.00,0.0235
495.00,0.0245
494.00,0.0251
493.00,0.0251
492.00,0.0249
491.00,0.0246
490.00,0.0242
489.00,0.0239
488.00,0.0239
487.00,0.0242
486.00,0.0246
485.00,0.0250
484.00,0.0254
483.00,0.0258
482.00,0.0256
481.00,0.0247
480.00,0.0235
479.00,0.0221
478.00,0.0206
477.00,0.0193
476.00,0.0189
475.00,0.0194
474.00,0.0198
473.00,0.0194
472.00,0.0181
471.00,0.0163
470.00,0.0144
469.00,0.0129
468.00,0.0120
467.00,0.0115
466.00,0.0109
465.00,0.0098
464.00,0.0087
463.00,0.0080
462.00,0.0076
461.00,0.0073
460.00,0.0075
459.00,0.0083
458.00,0.0095
457.00,0.0100
456.00,0.0093
455.00,0.0075
454.00,0.0058
453.00,0.0050
452.00,0.0052
451.00,0.0052
450.00,0.0044
