Created as New Dataset,Sample 003 By Administrator Date Friday, May 30 2025
cm-1,A
4000.00,0.0076
3999.00,0.0076
3998.00,0.0077
3997.00,0.0077
3996.00,0.0077
3995.00,0.0077
3994.00,0.0077
3993.00,0.0077
3992.00,0.0077
3991.00,0.0076
3990.00,0.0076
3989.00,0.0076
3988.00,0.0076
3987.00,0.0076
3986.00,0.0077
3985.00,0.0077
3984.00,0.0077
3983.00,0.0077
3982.00,0.0077
3981.00,0.0077
3980.00,0.0077
3979.00,0.0077
3978.00,0.0077
3977.00,0.0077
3976.00,0.0078
3975.00,0.0078
3974.00,0.0078
3973.00,0.0078
3972.00,0.0078
3971.00,0.0078
3970.00,0.0077
3969.00,0.0077
3968.00,0.0077
3967.00,0.0078
3966.00,0.0078
3965.00,0.0078
3964.00,0.0078
3963.00,0.0078
3962.00,0.0078
3961.00,0.0078
3960.00,0.0077
3959.00,0.0077
3958.00,0.0077
3957.00,0.0077
3956.00,0.0077
3955.00,0.0077
3954.00,0.0077
3953.00,0.0078
3952.00,0.0078
3951.00,0.0078
3950.00,0.0078
3949.00,0.0078
3948.00,0.0078
3947.00,0.0078
3946.00,0.0079
3945.00,0.0079
3944.00,0.0080
3943.00,0.0079
3942.00,0.0079
3941.00,0.0078
3940.00,0.0078
3939.00,0.0077
3938.00,0.0077
3937.00,0.0077
3936.00,0.0078
3935.00,0.0078
3934.00,0.0079
3933.00,0.0079
3932.00,0.0079
3931.00,0.0079
3930.00,0.0079
3929.00,0.0078
3928.00,0.0078
3927.00,0.0078
3926.00,0.0079
3925.00,0.0079
3924.00,0.0079
3923.00,0.0079
3922.00,0.0079
3921.00,0.0079
3920.00,0.0079
3919.00,0.0079
3918.00,0.0080
3917.00,0.0080
3916.00,0.0079
3915.00,0.0079
3914.00,0.0078
3913.00,0.0078
3912.00,0.0078
3911.00,0.0077
3910.00,0.0078
3909.00,0.0078
3908.00,0.0078
3907.00,0.0079
3906.00,0.0080
3905.00,0.0080
3904.00,0.0080
3903.00,0.0080
3902.00,0.0080
3901.00,0.0080
3900.00,0.0080
3899.00,0.0079
3898.00,0.0079
3897.00,0.0079
3896.00,0.0078
3895.00,0.0078
3894.00,0.0078
3893.00,0.0078
3892.00,0.0078
3891.00,0.0078
3890.00,0.0078
3889.00,0.0079
3888.00,0.0079
3887.00,0.0080
3886.00,0.0080
3885.00,0.0080
3884.00,0.0081
3883.00,0.0081
3882.00,0.0081
3881.00,0.0080
3880.00,0.0079
3879.00,0.0079
3878.00,0.0079
3877.00,0.0080
3876.00,0.0080
3875.00,0.0080
3874.00,0.0080
3873.00,0.0081
3872.00,0.0081
3871.00,0.0081
3870.00,0.0080
3869.00,0.0080
3868.00,0.0080
3867.00,0.0080
3866.00,0.0080
3865.00,0.0080
3864.00,0.0080
3863.00,0.0080
3862.00,0.0080
3861.00,0.0080
3860.00,0.0080
3859.00,0.0080
3858.00,0.0080
3857.00,0.0081
3856.00,0.0081
3855.00,0.0080
3854.00,0.0080
3853.00,0.0080
3852.00,0.0080
3851.00,0.0080
3850.00,0.0080
3849.00,0.0079
3848.00,0.0079
3847.00,0.0079
3846.00,0.0080
3845.00,0.0080
3844.00,0.0080
3843.00,0.0080
3842.00,0.0080
3841.00,0.0080
3840.00,0.0080
3839.00,0.0080
3838.00,0.0080
3837.00,0.0079
3836.00,0.0079
3835.00,0.0080
3834.00,0.0080
3833.00,0.0080
3832.00,0.0080
3831.00,0.0080
3830.00,0.0080
3829.00,0.0080
3828.00,0.0080
3827.00,0.0080
3826.00,0.0080
3825.00,0.0081
3824.00,0.0081
3823.00,0.0082
3822.00,0.0081
3821.00,0.0081
3820.00,0.0081
3819.00,0.0081
3818.00,0.0082
3817.00,0.0081
3816.00,0.0081
3815.00,0.0080
3814.00,0.0081
3813.00,0.0081
3812.00,0.0081
3811.00,0.0081
3810.00,0.0081
3809.00,0.0081
3808.00,0.0081
3807.00,0.0081
3806.00,0.0081
3805.00,0.0082
3804.00,0.0082
3803.00,0.0082
3802.00,0.0082
3801.00,0.0082
3800.00,0.0082
3799.00,0.0083
3798.00,0.0082
3797.00,0.0082
3796.00,0.0082
3795.00,0.0082
3794.00,0.0083
3793.00,0.0083
3792.00,0.0083
3791.00,0.0083
3790.00,0.0083
3789.00,0.0084
3788.00,0.0084
3787.00,0.0084
3786.00,0.0084
3785.00,0.0084
3784.00,0.0084
3783.00,0.0084
3782.00,0.0084
3781.00,0.0084
3780.00,0.0084
3779.00,0.0084
3778.00,0.0084
3777.00,0.0084
3776.00,0.0084
3775.00,0.0085
3774.00,0.0085
3773.00,0.0086
3772.00,0.0086
3771.00,0.0087
3770.00,0.0087
3769.00,0.0087
3768.00,0.0087
3767.00,0.0087
3766.00,0.0088
3765.00,0.0088
3764.00,0.0088
3763.00,0.0089
3762.00,0.0089
3761.00,0.0090
3760.00,0.0090
3759.00,0.0090
3758.00,0.0091
3757.00,0.0091
3756.00,0.0091
3755.00,0.0091
3754.00,0.0091
3753.00,0.0091
3752.00,0.0091
3751.00,0.0092
3750.00,0.0092
3749.00,0.0092
3748.00,0.0092
3747.00,0.0093
3746.00,0.0093
3745.00,0.0092
3744.00,0.0092
3743.00,0.0092
3742.00,0.0093
3741.00,0.0094
3740.00,0.0094
3739.00,0.0094
3738.00,0.0095
3737.00,0.0095
3736.00,0.0095
3735.00,0.0096
3734.00,0.0096
3733.00,0.0096
3732.00,0.0096
3731.00,0.0096
3730.00,0.0097
3729.00,0.0097
3728.00,0.0097
3727.00,0.0098
3726.00,0.0098
3725.00,0.0099
3724.00,0.0099
3723.00,0.0100
3722.00,0.0100
3721.00,0.0101
3720.00,0.0101
3719.00,0.0101
3718.00,0.0101
3717.00,0.0102
3716.00,0.0103
3715.00,0.0104
3714.00,0.0105
3713.00,0.0106
3712.00,0.0107
3711.00,0.0108
3710.00,0.0109
3709.00,0.0109
3708.00,0.0109
3707.00,0.0109
3706.00,0.0110
3705.00,0.0110
3704.00,0.0111
3703.00,0.0112
3702.00,0.0114
3701.00,0.0115
3700.00,0.0117
3699.00,0.0118
3698.00,0.0119
3697.00,0.0121
3696.00,0.0122
3695.00,0.0123
3694.00,0.0124
3693.00,0.0126
3692.00,0.0127
3691.00,0.0129
3690.00,0.0130
3689.00,0.0132
3688.00,0.0134
3687.00,0.0137
3686.00,0.0139
3685.00,0.0140
3684.00,0.0142
3683.00,0.0144
3682.00,0.0146
3681.00,0.0148
3680.00,0.0151
3679.00,0.0153
3678.00,0.0156
3677.00,0.0159
3676.00,0.0162
3675.00,0.0166
3674.00,0.0169
3673.00,0.0173
3672.00,0.0176
3671.00,0.0180
3670.00,0.0184
3669.00,0.0188
3668.00,0.0192
3667.00,0.0196
3666.00,0.0200
3665.00,0.0203
3664.00,0.0207
3663.00,0.0211
3662.00,0.0215
3661.00,0.0219
3660.00,0.0223
3659.00,0.0228
3658.00,0.0233
3657.00,0.0238
3656.00,0.0244
3655.00,0.0250
3654.00,0.0255
3653.00,0.0261
3652.00,0.0266
3651.00,0.0272
3650.00,0.0280
3649.00,0.0289
3648.00,0.0296
3647.00,0.0303
3646.00,0.0308
3645.00,0.0314
3644.00,0.0319
3643.00,0.0324
3642.00,0.0329
3641.00,0.0335
3640.00,0.0341
3639.00,0.0348
3638.00,0.0354
3637.00,0.0361
3636.00,0.0368
3635.00,0.0375
3634.00,0.0382
3633.00,0.0388
3632.00,0.0394
3631.00,0.0401
3630.00,0.0409
3629.00,0.0419
3628.00,0.0429
3627.00,0.0438
3626.00,0.0445
3625.00,0.0451
3624.00,0.0457
3623.00,0.0462
3622.00,0.0469
3621.00,0.0476
3620.00,0.0483
3619.00,0.0491
3618.00,0.0499
3617.00,0.0507
3616.00,0.0514
3615.00,0.0521
3614.00,0.0528
3613.00,0.0536
3612.00,0.0543
3611.00,0.0551
3610.00,0.0559
3609.00,0.0567
3608.00,0.0576
3607.00,0.0584
3606.00,0.0591
3605.00,0.0598
3604.00,0.0604
3603.00,0.0610
3602.00,0.0617
3601.00,0.0624
3600.00,0.0631
3599.00,0.0638
3598.00,0.0645
3597.00,0.0652
3596.00,0.0660
3595.00,0.0667
3594.00,0.0675
3593.00,0.0682
3592.00,0.0689
3591.00,0.0695
3590.00,0.0702
3589.00,0.0709
3588.00,0.0717
3587.00,0.0725
3586.00,0.0734
3585.00,0.0741
3584.00,0.0748
3583.00,0.0754
3582.00,0.0760
3581.00,0.0766
3580.00,0.0772
3579.00,0.0779
3578.00,0.0785
3577.00,0.0792
3576.00,0.0799
3575.00,0.0806
3574.00,0.0813
3573.00,0.0819
3572.00,0.0825
3571.00,0.0832
3570.00,0.0838
3569.00,0.0844
3568.00,0.0852
3567.00,0.0860
3566.00,0.0869
3565.00,0.0876
3564.00,0.0883
3563.00,0.0889
3562.00,0.0895
3561.00,0.0901
3560.00,0.0907
3559.00,0.0913
3558.00,0.0919
3557.00,0.0926
3556.00,0.0932
3555.00,0.0937
3554.00,0.0943
3553.00,0.0950
3552.00,0.0957
3551.00,0.0964
3550.00,0.0970
3549.00,0.0977
3548.00,0.0983
3547.00,0.0989
3546.00,0.0996
3545.00,0.1003
3544.00,0.1009
3543.00,0.1015
3542.00,0.1022
3541.00,0.1028
3540.00,0.1034
3539.00,0.1039
3538.00,0.1045
3537.00,0.1051
3536.00,0.1057
3535.00,0.1063
3534.00,0.1069
3533.00,0.1075
3532.00,0.1081
3531.00,0.1087
3530.00,0.1093
3529.00,0.1099
3528.00,0.1106
3527.00,0.1113
3526.00,0.1120
3525.00,0.1126
3524.00,0.1133
3523.00,0.1139
3522.00,0.1145
3521.00,0.1151
3520.00,0.1157
3519.00,0.1162
3518.00,0.1168
3517.00,0.1173
3516.00,0.1179
3515.00,0.1185
3514.00,0.1191
3513.00,0.1197
3512.00,0.1202
3511.00,0.1208
3510.00,0.1214
3509.00,0.1220
3508.00,0.1226
3507.00,0.1232
3506.00,0.1238
3505.00,0.1245
3504.00,0.1252
3503.00,0.1258
3502.00,0.1264
3501.00,0.1269
3500.00,0.1274
3499.00,0.1280
3498.00,0.1286
3497.00,0.1292
3496.00,0.1298
3495.00,0.1303
3494.00,0.1309
3493.00,0.1314
3492.00,0.1320
3491.00,0.1325
3490.00,0.1330
3489.00,0.1336
3488.00,0.1341
3487.00,0.1347
3486.00,0.1352
3485.00,0.1357
3484.00,0.1362
3483.00,0.1368
3482.00,0.1374
3481.00,0.1380
3480.00,0.1386
3479.00,0.1391
3478.00,0.1396
3477.00,0.1400
3476.00,0.1405
3475.00,0.1410
3474.00,0.1415
3473.00,0.1421
3472.00,0.1427
3471.00,0.1434
3470.00,0.1440
3469.00,0.1445
3468.00,0.1451
3467.00,0.1455
3466.00,0.1460
3465.00,0.1464
3464.00,0.1469
3463.00,0.1474
3462.00,0.1478
3461.00,0.1483
3460.00,0.1488
3459.00,0.1492
3458.00,0.1496
3457.00,0.1501
3456.00,0.1505
3455.00,0.1509
3454.00,0.1514
3453.00,0.1519
3452.00,0.1524
3451.00,0.1529
3450.00,0.1533
3449.00,0.1537
3448.00,0.1541
3447.00,0.1545
3446.00,0.1549
3445.00,0.1554
3444.00,0.1558
3443.00,0.1562
3442.00,0.1566
3441.00,0.1571
3440.00,0.1575
3439.00,0.1579
3438.00,0.1584
3437.00,0.1588
3436.00,0.1592
3435.00,0.1595
3434.00,0.1598
3433.00,0.1602
3432.00,0.1605
3431.00,0.1609
3430.00,0.1612
3429.00,0.1616
3428.00,0.1619
3427.00,0.1622
3426.00,0.1625
3425.00,0.1628
3424.00,0.1630
3423.00,0.1633
3422.00,0.1635
3421.00,0.1638
3420.00,0.1640
3419.00,0.1643
3418.00,0.1645
3417.00,0.1648
3416.00,0.1651
3415.00,0.1654
3414.00,0.1657
3413.00,0.1659
3412.00,0.1662
3411.00,0.1664
3410.00,0.1666
3409.00,0.1667
3408.00,0.1669
3407.00,0.1670
3406.00,0.1672
3405.00,0.1673
3404.00,0.1675
3403.00,0.1677
3402.00,0.1679
3401.00,0.1680
3400.00,0.1680
3399.00,0.1681
3398.00,0.1681
3397.00,0.1682
3396.00,0.1682
3395.00,0.1682
3394.00,0.1682
3393.00,0.1683
3392.00,0.1683
3391.00,0.1682
3390.00,0.1682
3389.00,0.1682
3388.00,0.1681
3387.00,0.1681
3386.00,0.1681
3385.00,0.1680
3384.00,0.1679
3383.00,0.1679
3382.00,0.1678
3381.00,0.1677
3380.00,0.1677
3379.00,0.1676
3378.00,0.1676
3377.00,0.1675
3376.00,0.1674
3375.00,0.1672
3374.00,0.1671
3373.00,0.1670
3372.00,0.1669
3371.00,0.1668
3370.00,0.1666
3369.00,0.1664
3368.00,0.1662
3367.00,0.1659
3366.00,0.1656
3365.00,0.1653
3364.00,0.1651
3363.00,0.1649
3362.00,0.1646
3361.00,0.1643
3360.00,0.1640
3359.00,0.1638
3358.00,0.1635
3357.00,0.1633
3356.00,0.1629
3355.00,0.1626
3354.00,0.1623
3353.00,0.1620
3352.00,0.1617
3351.00,0.1615
3350.00,0.1612
3349.00,0.1608
3348.00,0.1604
3347.00,0.1600
3346.00,0.1596
3345.00,0.1593
3344.00,0.1590
3343.00,0.1586
3342.00,0.1583
3341.00,0.1579
3340.00,0.1576
3339.00,0.1572
3338.00,0.1569
3337.00,0.1565
3336.00,0.1560
3335.00,0.1556
3334.00,0.1552
3333.00,0.1548
3332.00,0.1543
3331.00,0.1539
3330.00,0.1536
3329.00,0.1532
3328.00,0.1529
3327.00,0.1525
3326.00,0.1522
3325.00,0.1518
3324.00,0.1513
3323.00,0.1509
3322.00,0.1504
3321.00,0.1500
3320.00,0.1496
3319.00,0.1492
3318.00,0.1488
3317.00,0.1484
3316.00,0.1481
3315.00,0.1477
3314.00,0.1473
3313.00,0.1469
3312.00,0.1465
3311.00,0.1461
3310.00,0.1457
3309.00,0.1454
3308.00,0.1450
3307.00,0.1447
3306.00,0.1443
3305.00,0.1440
3304.00,0.1436
3303.00,0.1432
3302.00,0.1429
3301.00,0.1425
3300.00,0.1421
3299.00,0.1418
3298.00,0.1414
3297.00,0.1411
3296.00,0.1407
3295.00,0.1403
3294.00,0.1400
3293.00,0.1397
3292.00,0.1393
3291.00,0.1390
3290.00,0.1386
3289.00,0.1383
3288.00,0.1379
3287.00,0.1376
3286.00,0.1372
3285.00,0.1369
3284.00,0.1365
3283.00,0.1361
3282.00,0.1358
3281.00,0.1354
3280.00,0.1351
3279.00,0.1348
3278.00,0.1344
3277.00,0.1340
3276.00,0.1337
3275.00,0.1333
3274.00,0.1330
3273.00,0.1327
3272.00,0.1324
3271.00,0.1320
3270.00,0.1317
3269.00,0.1313
3268.00,0.1309
3267.00,0.1305
3266.00,0.1302
3265.00,0.1298
3264.00,0.1294
3263.00,0.1290
3262.00,0.1286
3261.00,0.1282
3260.00,0.1279
3259.00,0.1275
3258.00,0.1272
3257.00,0.1268
3256.00,0.1264
3255.00,0.1259
3254.00,0.1254
3253.00,0.1250
3252.00,0.1246
3251.00,0.1242
3250.00,0.1239
3249.00,0.1235
3248.00,0.1231
3247.00,0.1226
3246.00,0.1221
3245.00,0.1217
3244.00,0.1212
3243.00,0.1208
3242.00,0.1203
3241.00,0.1198
3240.00,0.1194
3239.00,0.1189
3238.00,0.1185
3237.00,0.1180
3236.00,0.1175
3235.00,0.1170
3234.00,0.1165
3233.00,0.1160
3232.00,0.1155
3231.00,0.1149
3230.00,0.1144
3229.00,0.1139
3228.00,0.1133
3227.00,0.1128
3226.00,0.1122
3225.00,0.1117
3224.00,0.1112
3223.00,0.1107
3222.00,0.1101
3221.00,0.1096
3220.00,0.1091
3219.00,0.1086
3218.00,0.1080
3217.00,0.1074
3216.00,0.1069
3215.00,0.1063
3214.00,0.1057
3213.00,0.1052
3212.00,0.1046
3211.00,0.1040
3210.00,0.1034
3209.00,0.1028
3208.00,0.1022
3207.00,0.1016
3206.00,0.1010
3205.00,0.1004
3204.00,0.0998
3203.00,0.0992
3202.00,0.0986
3201.00,0.0980
3200.00,0.0974
3199.00,0.0969
3198.00,0.0963
3197.00,0.0958
3196.00,0.0952
3195.00,0.0946
3194.00,0.0940
3193.00,0.0934
3192.00,0.0928
3191.00,0.0922
3190.00,0.0915
3189.00,0.0909
3188.00,0.0903
3187.00,0.0897
3186.00,0.0891
3185.00,0.0885
3184.00,0.0879
3183.00,0.0874
3182.00,0.0868
3181.00,0.0861
3180.00,0.0856
3179.00,0.0850
3178.00,0.0844
3177.00,0.0839
3176.00,0.0833
3175.00,0.0828
3174.00,0.0822
3173.00,0.0816
3172.00,0.0811
3171.00,0.0805
3170.00,0.0799
3169.00,0.0793
3168.00,0.0787
3167.00,0.0781
3166.00,0.0776
3165.00,0.0770
3164.00,0.0765
3163.00,0.0760
3162.00,0.0755
3161.00,0.0750
3160.00,0.0745
3159.00,0.0740
3158.00,0.0735
3157.00,0.0729
3156.00,0.0724
3155.00,0.0719
3154.00,0.0714
3153.00,0.0709
3152.00,0.0703
3151.00,0.0698
3150.00,0.0693
3149.00,0.0688
3148.00,0.0683
3147.00,0.0679
3146.00,0.0674
3145.00,0.0670
3144.00,0.0665
3143.00,0.0660
3142.00,0.0655
3141.00,0.0650
3140.00,0.0645
3139.00,0.0640
3138.00,0.0635
3137.00,0.0631
3136.00,0.0626
3135.00,0.0622
3134.00,0.0618
3133.00,0.0614
3132.00,0.0610
3131.00,0.0605
3130.00,0.0601
3129.00,0.0597
3128.00,0.0593
3127.00,0.0589
3126.00,0.0585
3125.00,0.0581
3124.00,0.0577
3123.00,0.0573
3122.00,0.0568
3121.00,0.0564
3120.00,0.0560
3119.00,0.0556
3118.00,0.0552
3117.00,0.0548
3116.00,0.0544
3115.00,0.0540
3114.00,0.0537
3113.00,0.0533
3112.00,0.0529
3111.00,0.0526
3110.00,0.0522
3109.00,0.0519
3108.00,0.0516
3107.00,0.0512
3106.00,0.0509
3105.00,0.0506
3104.00,0.0502
3103.00,0.0498
3102.00,0.0495
3101.00,0.0492
3100.00,0.0488
3099.00,0.0485
3098.00,0.0482
3097.00,0.0478
3096.00,0.0475
3095.00,0.0472
3094.00,0.0469
3093.00,0.0466
3092.00,0.0463
3091.00,0.0460
3090.00,0.0457
3089.00,0.0454
3088.00,0.0451
3087.00,0.0448
3086.00,0.0445
3085.00,0.0442
3084.00,0.0439
3083.00,0.0436
3082.00,0.0433
3081.00,0.0430
3080.00,0.0428
3079.00,0.0425
3078.00,0.0423
3077.00,0.0420
3076.00,0.0418
3075.00,0.0415
3074.00,0.0412
3073.00,0.0410
3072.00,0.0407
3071.00,0.0405
3070.00,0.0403
3069.00,0.0400
3068.00,0.0397
3067.00,0.0394
3066.00,0.0392
3065.00,0.0390
3064.00,0.0387
3063.00,0.0385
3062.00,0.0383
3061.00,0.0381
3060.00,0.0378
3059.00,0.0375
3058.00,0.0373
3057.00,0.0370
3056.00,0.0368
3055.00,0.0365
3054.00,0.0363
3053.00,0.0361
3052.00,0.0359
3051.00,0.0357
3050.00,0.0355
3049.00,0.0353
3048.00,0.0351
3047.00,0.0349
3046.00,0.0346
3045.00,0.0344
3044.00,0.0342
3043.00,0.0340
3042.00,0.0339
3041.00,0.0337
3040.00,0.0335
3039.00,0.0333
3038.00,0.0331
3037.00,0.0329
3036.00,0.0328
3035.00,0.0326
3034.00,0.0324
3033.00,0.0323
3032.00,0.0321
3031.00,0.0320
3030.00,0.0318
3029.00,0.0317
3028.00,0.0315
3027.00,0.0314
3026.00,0.0312
3025.00,0.0311
3024.00,0.0309
3023.00,0.0308
3022.00,0.0306
3021.00,0.0304
3020.00,0.0302
3019.00,0.0301
3018.00,0.0300
3017.00,0.0299
3016.00,0.0298
3015.00,0.0297
3014.00,0.0296
3013.00,0.0295
3012.00,0.0294
3011.00,0.0294
3010.00,0.0293
3009.00,0.0292
3008.00,0.0291
3007.00,0.0290
3006.00,0.0289
3005.00,0.0288
3004.00,0.0287
3003.00,0.0286
3002.00,0.0285
3001.00,0.0285
3000.00,0.0284
2999.00,0.0284
2998.00,0.0283
2997.00,0.0283
2996.00,0.0282
2995.00,0.0281
2994.00,0.0281
2993.00,0.0281
2992.00,0.0280
2991.00,0.0280
2990.00,0.0280
2989.00,0.0280
2988.00,0.0280
2987.00,0.0281
2986.00,0.0281
2985.00,0.0281
2984.00,0.0281
2983.00,0.0281
2982.00,0.0282
2981.00,0.0283
2980.00,0.0283
2979.00,0.0284
2978.00,0.0285
2977.00,0.0286
2976.00,0.0286
2975.00,0.0287
2974.00,0.0287
2973.00,0.0288
2972.00,0.0289
2971.00,0.0289
2970.00,0.0290
2969.00,0.0291
2968.00,0.0291
2967.00,0.0292
2966.00,0.0292
2965.00,0.0292
2964.00,0.0293
2963.00,0.0294
2962.00,0.0295
2961.00,0.0296
2960.00,0.0296
2959.00,0.0297
2958.00,0.0297
2957.00,0.0297
2956.00,0.0297
2955.00,0.0297
2954.00,0.0296
2953.00,0.0296
2952.00,0.0296
2951.00,0.0295
2950.00,0.0295
2949.00,0.0294
2948.00,0.0295
2947.00,0.0295
2946.00,0.0295
2945.00,0.0296
2944.00,0.0296
2943.00,0.0297
2942.00,0.0298
2941.00,0.0299
2940.00,0.0301
2939.00,0.0302
2938.00,0.0304
2937.00,0.0305
2936.00,0.0307
2935.00,0.0310
2934.00,0.0313
2933.00,0.0315
2932.00,0.0318
2931.00,0.0320
2930.00,0.0323
2929.00,0.0325
2928.00,0.0328
2927.00,0.0330
2926.00,0.0332
2925.00,0.0334
2924.00,0.0335
2923.00,0.0337
2922.00,0.0338
2921.00,0.0338
2920.00,0.0338
2919.00,0.0337
2918.00,0.0334
2917.00,0.0331
2916.00,0.0327
2915.00,0.0322
2914.00,0.0317
2913.00,0.0312
2912.00,0.0307
2911.00,0.0302
2910.00,0.0298
2909.00,0.0295
2908.00,0.0291
2907.00,0.0288
2906.00,0.0286
2905.00,0.0283
2904.00,0.0281
2903.00,0.0279
2902.00,0.0276
2901.00,0.0274
2900.00,0.0271
2899.00,0.0269
2898.00,0.0266
2897.00,0.0263
2896.00,0.0261
2895.00,0.0259
2894.00,0.0257
2893.00,0.0255
2892.00,0.0253
2891.00,0.0252
2890.00,0.0250
2889.00,0.0248
2888.00,0.0246
2887.00,0.0244
2886.00,0.0242
2885.00,0.0241
2884.00,0.0240
2883.00,0.0238
2882.00,0.0236
2881.00,0.0235
2880.00,0.0234
2879.00,0.0233
2878.00,0.0232
2877.00,0.0231
2876.00,0.0230
2875.00,0.0229
2874.00,0.0228
2873.00,0.0227
2872.00,0.0226
2871.00,0.0225
2870.00,0.0224
2869.00,0.0223
2868.00,0.0223
2867.00,0.0222
2866.00,0.0221
2865.00,0.0220
2864.00,0.0220
2863.00,0.0220
2862.00,0.0220
2861.00,0.0221
2860.00,0.0223
2859.00,0.0224
2858.00,0.0226
2857.00,0.0228
2856.00,0.0229
2855.00,0.0231
2854.00,0.0232
2853.00,0.0233
2852.00,0.0234
2851.00,0.0233
2850.00,0.0230
2849.00,0.0226
2848.00,0.0221
2847.00,0.0216
2846.00,0.0210
2845.00,0.0205
2844.00,0.0199
2843.00,0.0195
2842.00,0.0191
2841.00,0.0187
2840.00,0.0184
2839.00,0.0182
2838.00,0.0180
2837.00,0.0178
2836.00,0.0176
2835.00,0.0175
2834.00,0.0173
2833.00,0.0172
2832.00,0.0171
2831.00,0.0170
2830.00,0.0169
2829.00,0.0168
2828.00,0.0167
2827.00,0.0166
2826.00,0.0165
2825.00,0.0164
2824.00,0.0163
2823.00,0.0162
2822.00,0.0162
2821.00,0.0161
2820.00,0.0160
2819.00,0.0159
2818.00,0.0158
2817.00,0.0158
2816.00,0.0157
2815.00,0.0157
2814.00,0.0156
2813.00,0.0156
2812.00,0.0155
2811.00,0.0154
2810.00,0.0153
2809.00,0.0153
2808.00,0.0152
2807.00,0.0151
2806.00,0.0151
2805.00,0.0151
2804.00,0.0151
2803.00,0.0150
2802.00,0.0150
2801.00,0.0149
2800.00,0.0148
2799.00,0.0147
2798.00,0.0147
2797.00,0.0146
2796.00,0.0146
2795.00,0.0146
2794.00,0.0146
2793.00,0.0146
2792.00,0.0145
2791.00,0.0144
2790.00,0.0144
2789.00,0.0143
2788.00,0.0142
2787.00,0.0142
2786.00,0.0141
2785.00,0.0141
2784.00,0.0141
2783.00,0.0140
2782.00,0.0140
2781.00,0.0140
2780.00,0.0139
2779.00,0.0139
2778.00,0.0138
2777.00,0.0138
2776.00,0.0137
2775.00,0.0137
2774.00,0.0136
2773.00,0.0136
2772.00,0.0135
2771.00,0.0135
2770.00,0.0134
2769.00,0.0134
2768.00,0.0134
2767.00,0.0134
2766.00,0.0134
2765.00,0.0134
2764.00,0.0133
2763.00,0.0132
2762.00,0.0132
2761.00,0.0132
2760.00,0.0131
2759.00,0.0131
2758.00,0.0131
2757.00,0.0131
2756.00,0.0130
2755.00,0.0130
2754.00,0.0130
2753.00,0.0129
2752.00,0.0129
2751.00,0.0129
2750.00,0.0129
2749.00,0.0128
2748.00,0.0128
2747.00,0.0128
2746.00,0.0128
2745.00,0.0128
2744.00,0.0128
2743.00,0.0128
2742.00,0.0127
2741.00,0.0127
2740.00,0.0126
2739.00,0.0126
2738.00,0.0126
2737.00,0.0125
2736.00,0.0125
2735.00,0.0125
2734.00,0.0125
2733.00,0.0125
2732.00,0.0125
2731.00,0.0125
2730.00,0.0125
2729.00,0.0124
2728.00,0.0124
2727.00,0.0123
2726.00,0.0123
2725.00,0.0122
2724.00,0.0122
2723.00,0.0122
2722.00,0.0122
2721.00,0.0121
2720.00,0.0121
2719.00,0.0121
2718.00,0.0121
2717.00,0.0121
2716.00,0.0120
2715.00,0.0120
2714.00,0.0120
2713.00,0.0119
2712.00,0.0119
2711.00,0.0119
2710.00,0.0119
2709.00,0.0119
2708.00,0.0119
2707.00,0.0118
2706.00,0.0118
2705.00,0.0118
2704.00,0.0118
2703.00,0.0118
2702.00,0.0118
2701.00,0.0118
2700.00,0.0117
2699.00,0.0117
2698.00,0.0116
2697.00,0.0116
2696.00,0.0116
2695.00,0.0115
2694.00,0.0115
2693.00,0.0115
2692.00,0.0115
2691.00,0.0115
2690.00,0.0115
2689.00,0.0115
2688.00,0.0115
2687.00,0.0115
2686.00,0.0115
2685.00,0.0115
2684.00,0.0115
2683.00,0.0115
2682.00,0.0114
2681.00,0.0114
2680.00,0.0114
2679.00,0.0114
2678.00,0.0113
2677.00,0.0113
2676.00,0.0113
2675.00,0.0113
2674.00,0.0113
2673.00,0.0113
2672.00,0.0113
2671.00,0.0112
2670.00,0.0112
2669.00,0.0112
2668.00,0.0112
2667.00,0.0112
2666.00,0.0113
2665.00,0.0113
2664.00,0.0113
2663.00,0.0114
2662.00,0.0114
2661.00,0.0115
2660.00,0.0115
2659.00,0.0115
2658.00,0.0115
2657.00,0.0115
2656.00,0.0115
2655.00,0.0115
2654.00,0.0115
2653.00,0.0115
2652.00,0.0115
2651.00,0.0115
2650.00,0.0114
2649.00,0.0114
2648.00,0.0113
2647.00,0.0113
2646.00,0.0112
2645.00,0.0112
2644.00,0.0112
2643.00,0.0112
2642.00,0.0112
2641.00,0.0112
2640.00,0.0111
2639.00,0.0111
2638.00,0.0110
2637.00,0.0110
2636.00,0.0109
2635.00,0.0109
2634.00,0.0109
2633.00,0.0109
2632.00,0.0109
2631.00,0.0108
2630.00,0.0108
2629.00,0.0107
2628.00,0.0107
2627.00,0.0107
2626.00,0.0107
2625.00,0.0106
2624.00,0.0105
2623.00,0.0105
2622.00,0.0104
2621.00,0.0104
2620.00,0.0103
2619.00,0.0103
2618.00,0.0103
2617.00,0.0103
2616.00,0.0103
2615.00,0.0103
2614.00,0.0102
2613.00,0.0102
2612.00,0.0101
2611.00,0.0100
2610.00,0.0100
2609.00,0.0100
2608.00,0.0100
2607.00,0.0099
2606.00,0.0099
2605.00,0.0099
2604.00,0.0099
2603.00,0.0099
2602.00,0.0099
2601.00,0.0098
2600.00,0.0098
2599.00,0.0097
2598.00,0.0098
2597.00,0.0098
2596.00,0.0098
2595.00,0.0098
2594.00,0.0098
2593.00,0.0097
2592.00,0.0097
2591.00,0.0096
2590.00,0.0096
2589.00,0.0097
2588.00,0.0097
2587.00,0.0097
2586.00,0.0097
2585.00,0.0096
2584.00,0.0096
2583.00,0.0095
2582.00,0.0094
2581.00,0.0094
2580.00,0.0093
2579.00,0.0093
2578.00,0.0093
2577.00,0.0093
2576.00,0.0093
2575.00,0.0093
2574.00,0.0092
2573.00,0.0091
2572.00,0.0091
2571.00,0.0091
2570.00,0.0091
2569.00,0.0091
2568.00,0.0091
2567.00,0.0091
2566.00,0.0091
2565.00,0.0091
2564.00,0.0091
2563.00,0.0091
2562.00,0.0090
2561.00,0.0090
2560.00,0.0089
2559.00,0.0089
2558.00,0.0089
2557.00,0.0089
2556.00,0.0089
2555.00,0.0089
2554.00,0.0089
2553.00,0.0089
2552.00,0.0090
2551.00,0.0090
2550.00,0.0090
2549.00,0.0090
2548.00,0.0090
2547.00,0.0090
2546.00,0.0089
2545.00,0.0089
2544.00,0.0088
2543.00,0.0088
2542.00,0.0088
2541.00,0.0088
2540.00,0.0089
2539.00,0.0089
2538.00,0.0089
2537.00,0.0089
2536.00,0.0089
2535.00,0.0088
2534.00,0.0088
2533.00,0.0088
2532.00,0.0089
2531.00,0.0089
2530.00,0.0089
2529.00,0.0089
2528.00,0.0088
2527.00,0.0087
2526.00,0.0087
2525.00,0.0087
2524.00,0.0087
2523.00,0.0087
2522.00,0.0087
2521.00,0.0087
2520.00,0.0086
2519.00,0.0086
2518.00,0.0086
2517.00,0.0087
2516.00,0.0087
2515.00,0.0087
2514.00,0.0087
2513.00,0.0087
2512.00,0.0087
2511.00,0.0087
2510.00,0.0087
2509.00,0.0087
2508.00,0.0087
2507.00,0.0087
2506.00,0.0087
2505.00,0.0087
2504.00,0.0086
2503.00,0.0086
2502.00,0.0086
2501.00,0.0086
2500.00,0.0086
2499.00,0.0085
2498.00,0.0085
2497.00,0.0085
2496.00,0.0086
2495.00,0.0086
2494.00,0.0086
2493.00,0.0086
2492.00,0.0086
2491.00,0.0086
2490.00,0.0085
2489.00,0.0085
2488.00,0.0085
2487.00,0.0085
2486.00,0.0085
2485.00,0.0085
2484.00,0.0085
2483.00,0.0085
2482.00,0.0085
2481.00,0.0085
2480.00,0.0085
2479.00,0.0085
2478.00,0.0084
2477.00,0.0084
2476.00,0.0084
2475.00,0.0084
2474.00,0.0084
2473.00,0.0084
2472.00,0.0084
2471.00,0.0084
2470.00,0.0084
2469.00,0.0084
2468.00,0.0085
2467.00,0.0085
2466.00,0.0085
2465.00,0.0086
2464.00,0.0085
2463.00,0.0086
2462.00,0.0086
2461.00,0.0086
2460.00,0.0087
2459.00,0.0087
2458.00,0.0087
2457.00,0.0087
2456.00,0.0087
2455.00,0.0087
2454.00,0.0087
2453.00,0.0087
2452.00,0.0087
2451.00,0.0087
2450.00,0.0087
2449.00,0.0087
2448.00,0.0087
2447.00,0.0086
2446.00,0.0086
2445.00,0.0086
2444.00,0.0086
2443.00,0.0085
2442.00,0.0084
2441.00,0.0084
2440.00,0.0085
2439.00,0.0085
2438.00,0.0085
2437.00,0.0085
2436.00,0.0084
2435.00,0.0084
2434.00,0.0083
2433.00,0.0083
2432.00,0.0083
2431.00,0.0083
2430.00,0.0083
2429.00,0.0084
2428.00,0.0084
2427.00,0.0084
2426.00,0.0084
2425.00,0.0083
2424.00,0.0084
2423.00,0.0084
2422.00,0.0084
2421.00,0.0084
2420.00,0.0084
2419.00,0.0084
2418.00,0.0084
2417.00,0.0084
2416.00,0.0084
2415.00,0.0084
2414.00,0.0084
2413.00,0.0084
2412.00,0.0085
2411.00,0.0085
2410.00,0.0085
2409.00,0.0085
2408.00,0.0084
2407.00,0.0083
2406.00,0.0083
2405.00,0.0083
2404.00,0.0083
2403.00,0.0083
2402.00,0.0083
2401.00,0.0084
2400.00,0.0084
2399.00,0.0084
2398.00,0.0084
2397.00,0.0083
2396.00,0.0084
2395.00,0.0084
2394.00,0.0084
2393.00,0.0084
2392.00,0.0084
2391.00,0.0084
2390.00,0.0084
2389.00,0.0084
2388.00,0.0084
2387.00,0.0084
2386.00,0.0083
2385.00,0.0083
2384.00,0.0083
2383.00,0.0083
2382.00,0.0083
2381.00,0.0082
2380.00,0.0082
2379.00,0.0082
2378.00,0.0082
2377.00,0.0082
2376.00,0.0083
2375.00,0.0084
2374.00,0.0085
2373.00,0.0086
2372.00,0.0086
2371.00,0.0085
2370.00,0.0085
2369.00,0.0085
2368.00,0.0085
2367.00,0.0085
2366.00,0.0085
2365.00,0.0086
2364.00,0.0087
2363.00,0.0089
2362.00,0.0090
2361.00,0.0091
2360.00,0.0092
2359.00,0.0092
2358.00,0.0092
2357.00,0.0092
2356.00,0.0092
2355.00,0.0092
2354.00,0.0091
2353.00,0.0091
2352.00,0.0091
2351.00,0.0092
2350.00,0.0093
2349.00,0.0094
2348.00,0.0095
2347.00,0.0095
2346.00,0.0096
2345.00,0.0097
2344.00,0.0098
2343.00,0.0098
2342.00,0.0099
2341.00,0.0099
2340.00,0.0100
2339.00,0.0101
2338.00,0.0102
2337.00,0.0102
2336.00,0.0103
2335.00,0.0103
2334.00,0.0102
2333.00,0.0102
2332.00,0.0102
2331.00,0.0102
2330.00,0.0102
2329.00,0.0103
2328.00,0.0106
2327.00,0.0110
2326.00,0.0116
2325.00,0.0121
2324.00,0.0124
2323.00,0.0124
2322.00,0.0122
2321.00,0.0120
2320.00,0.0118
2319.00,0.0116
2318.00,0.0114
2317.00,0.0113
2316.00,0.0113
2315.00,0.0112
2314.00,0.0112
2313.00,0.0111
2312.00,0.0111
2311.00,0.0110
2310.00,0.0110
2309.00,0.0110
2308.00,0.0110
2307.00,0.0109
2306.00,0.0110
2305.00,0.0110
2304.00,0.0111
2303.00,0.0111
2302.00,0.0112
2301.00,0.0113
2300.00,0.0113
2299.00,0.0114
2298.00,0.0114
2297.00,0.0115
2296.00,0.0116
2295.00,0.0116
2294.00,0.0117
2293.00,0.0118
2292.00,0.0119
2291.00,0.0120
2290.00,0.0122
2289.00,0.0123
2288.00,0.0124
2287.00,0.0124
2286.00,0.0125
2285.00,0.0125
2284.00,0.0125
2283.00,0.0124
2282.00,0.0122
2281.00,0.0121
2280.00,0.0120
2279.00,0.0119
2278.00,0.0118
2277.00,0.0117
2276.00,0.0116
2275.00,0.0115
2274.00,0.0115
2273.00,0.0115
2272.00,0.0116
2271.00,0.0116
2270.00,0.0116
2269.00,0.0116
2268.00,0.0115
2267.00,0.0114
2266.00,0.0113
2265.00,0.0111
2264.00,0.0110
2263.00,0.0109
2262.00,0.0108
2261.00,0.0108
2260.00,0.0109
2259.00,0.0111
2258.00,0.0112
2257.00,0.0112
2256.00,0.0111
2255.00,0.0109
2254.00,0.0106
2253.00,0.0104
2252.00,0.0103
2251.00,0.0104
2250.00,0.0106
2249.00,0.0107
2248.00,0.0107
2247.00,0.0107
2246.00,0.0106
2245.00,0.0107
2244.00,0.0110
2243.00,0.0112
2242.00,0.0113
2241.00,0.0114
2240.00,0.0114
2239.00,0.0114
2238.00,0.0114
2237.00,0.0113
2236.00,0.0112
2235.00,0.0111
2234.00,0.0110
2233.00,0.0109
2232.00,0.0109
2231.00,0.0109
2230.00,0.0108
2229.00,0.0107
2228.00,0.0107
2227.00,0.0108
2226.00,0.0109
2225.00,0.0110
2224.00,0.0111
2223.00,0.0112
2222.00,0.0112
2221.00,0.0113
2220.00,0.0113
2219.00,0.0112
2218.00,0.0112
2217.00,0.0112
2216.00,0.0112
2215.00,0.0111
2214.00,0.0110
2213.00,0.0109
2212.00,0.0109
2211.00,0.0109
2210.00,0.0108
2209.00,0.0108
2208.00,0.0108
2207.00,0.0107
2206.00,0.0107
2205.00,0.0108
2204.00,0.0110
2203.00,0.0112
2202.00,0.0113
2201.00,0.0113
2200.00,0.0112
2199.00,0.0111
2198.00,0.0110
2197.00,0.0110
2196.00,0.0111
2195.00,0.0111
2194.00,0.0112
2193.00,0.0113
2192.00,0.0113
2191.00,0.0114
2190.00,0.0114
2189.00,0.0116
2188.00,0.0118
2187.00,0.0119
2186.00,0.0119
2185.00,0.0117
2184.00,0.0115
2183.00,0.0113
2182.00,0.0111
2181.00,0.0108
2180.00,0.0105
2179.00,0.0104
2178.00,0.0104
2177.00,0.0104
2176.00,0.0104
2175.00,0.0104
2174.00,0.0106
2173.00,0.0109
2172.00,0.0114
2171.00,0.0118
2170.00,0.0120
2169.00,0.0120
2168.00,0.0120
2167.00,0.0120
2166.00,0.0121
2165.00,0.0123
2164.00,0.0125
2163.00,0.0125
2162.00,0.0122
2161.00,0.0115
2160.00,0.0101
2159.00,0.0081
2158.00,0.0061
2157.00,0.0048
2156.00,0.0046
2155.00,0.0049
2154.00,0.0054
2153.00,0.0061
2152.00,0.0068
2151.00,0.0075
2150.00,0.0081
2149.00,0.0085
2148.00,0.0087
2147.00,0.0088
2146.00,0.0088
2145.00,0.0087
2144.00,0.0087
2143.00,0.0088
2142.00,0.0088
2141.00,0.0089
2140.00,0.0090
2139.00,0.0091
2138.00,0.0093
2137.00,0.0093
2136.00,0.0092
2135.00,0.0089
2134.00,0.0087
2133.00,0.0088
2132.00,0.0091
2131.00,0.0096
2130.00,0.0099
2129.00,0.0102
2128.00,0.0104
2127.00,0.0105
2126.00,0.0107
2125.00,0.0110
2124.00,0.0113
2123.00,0.0116
2122.00,0.0118
2121.00,0.0120
2120.00,0.0122
2119.00,0.0123
2118.00,0.0124
2117.00,0.0126
2116.00,0.0128
2115.00,0.0131
2114.00,0.0132
2113.00,0.0133
2112.00,0.0132
2111.00,0.0130
2110.00,0.0128
2109.00,0.0129
2108.00,0.0130
2107.00,0.0130
2106.00,0.0131
2105.00,0.0131
2104.00,0.0131
2103.00,0.0130
2102.00,0.0128
2101.00,0.0127
2100.00,0.0127
2099.00,0.0127
2098.00,0.0127
2097.00,0.0127
2096.00,0.0127
2095.00,0.0125
2094.00,0.0123
2093.00,0.0122
2092.00,0.0122
2091.00,0.0123
2090.00,0.0124
2089.00,0.0125
2088.00,0.0127
2087.00,0.0128
2086.00,0.0128
2085.00,0.0128
2084.00,0.0127
2083.00,0.0126
2082.00,0.0126
2081.00,0.0126
2080.00,0.0127
2079.00,0.0128
2078.00,0.0129
2077.00,0.0129
2076.00,0.0128
2075.00,0.0128
2074.00,0.0127
2073.00,0.0127
2072.00,0.0127
2071.00,0.0127
2070.00,0.0126
2069.00,0.0125
2068.00,0.0123
2067.00,0.0120
2066.00,0.0119
2065.00,0.0117
2064.00,0.0117
2063.00,0.0117
2062.00,0.0118
2061.00,0.0117
2060.00,0.0117
2059.00,0.0116
2058.00,0.0116
2057.00,0.0117
2056.00,0.0116
2055.00,0.0114
2054.00,0.0114
2053.00,0.0117
2052.00,0.0123
2051.00,0.0127
2050.00,0.0126
2049.00,0.0121
2048.00,0.0115
2047.00,0.0110
2046.00,0.0107
2045.00,0.0106
2044.00,0.0107
2043.00,0.0108
2042.00,0.0108
2041.00,0.0107
2040.00,0.0105
2039.00,0.0103
2038.00,0.0102
2037.00,0.0102
2036.00,0.0102
2035.00,0.0100
2034.00,0.0095
2033.00,0.0089
2032.00,0.0084
2031.00,0.0082
2030.00,0.0082
2029.00,0.0084
2028.00,0.0085
2027.00,0.0084
2026.00,0.0082
2025.00,0.0081
2024.00,0.0082
2023.00,0.0084
2022.00,0.0086
2021.00,0.0088
2020.00,0.0090
2019.00,0.0091
2018.00,0.0090
2017.00,0.0088
2016.00,0.0088
2015.00,0.0090
2014.00,0.0093
2013.00,0.0094
2012.00,0.0094
2011.00,0.0092
2010.00,0.0089
2009.00,0.0085
2008.00,0.0081
2007.00,0.0077
2006.00,0.0073
2005.00,0.0072
2004.00,0.0074
2003.00,0.0077
2002.00,0.0080
2001.00,0.0084
2000.00,0.0087
1999.00,0.0089
1998.00,0.0089
1997.00,0.0089
1996.00,0.0090
1995.00,0.0092
1994.00,0.0095
1993.00,0.0097
1992.00,0.0099
1991.00,0.0099
1990.00,0.0098
1989.00,0.0097
1988.00,0.0096
1987.00,0.0097
1986.00,0.0098
1985.00,0.0098
1984.00,0.0100
1983.00,0.0102
1982.00,0.0106
1981.00,0.0110
1980.00,0.0113
1979.00,0.0111
1978.00,0.0103
1977.00,0.0093
1976.00,0.0085
1975.00,0.0079
1974.00,0.0075
1973.00,0.0074
1972.00,0.0075
1971.00,0.0076
1970.00,0.0077
1969.00,0.0077
1968.00,0.0077
1967.00,0.0077
1966.00,0.0075
1965.00,0.0073
1964.00,0.0072
1963.00,0.0073
1962.00,0.0074
1961.00,0.0077
1960.00,0.0077
1959.00,0.0076
1958.00,0.0075
1957.00,0.0075
1956.00,0.0077
1955.00,0.0078
1954.00,0.0079
1953.00,0.0080
1952.00,0.0082
1951.00,0.0083
1950.00,0.0083
1949.00,0.0082
1948.00,0.0083
1947.00,0.0083
1946.00,0.0084
1945.00,0.0085
1944.00,0.0086
1943.00,0.0086
1942.00,0.0085
1941.00,0.0084
1940.00,0.0084
1939.00,0.0083
1938.00,0.0082
1937.00,0.0083
1936.00,0.0084
1935.00,0.0086
1934.00,0.0086
1933.00,0.0085
1932.00,0.0086
1931.00,0.0087
1930.00,0.0088
1929.00,0.0088
1928.00,0.0088
1927.00,0.0087
1926.00,0.0086
1925.00,0.0086
1924.00,0.0086
1923.00,0.0087
1922.00,0.0087
1921.00,0.0089
1920.00,0.0091
1919.00,0.0093
1918.00,0.0095
1917.00,0.0095
1916.00,0.0095
1915.00,0.0095
1914.00,0.0093
1913.00,0.0092
1912.00,0.0091
1911.00,0.0091
1910.00,0.0091
1909.00,0.0091
1908.00,0.0091
1907.00,0.0091
1906.00,0.0091
1905.00,0.0092
1904.00,0.0092
1903.00,0.0092
1902.00,0.0092
1901.00,0.0092
1900.00,0.0092
1899.00,0.0092
1898.00,0.0092
1897.00,0.0093
1896.00,0.0093
1895.00,0.0092
1894.00,0.0092
1893.00,0.0091
1892.00,0.0092
1891.00,0.0093
1890.00,0.0093
1889.00,0.0093
1888.00,0.0093
1887.00,0.0093
1886.00,0.0093
1885.00,0.0093
1884.00,0.0093
1883.00,0.0093
1882.00,0.0093
1881.00,0.0093
1880.00,0.0093
1879.00,0.0093
1878.00,0.0093
1877.00,0.0093
1876.00,0.0094
1875.00,0.0095
1874.00,0.0095
1873.00,0.0095
1872.00,0.0094
1871.00,0.0093
1870.00,0.0092
1869.00,0.0091
1868.00,0.0091
1867.00,0.0091
1866.00,0.0092
1865.00,0.0094
1864.00,0.0094
1863.00,0.0095
1862.00,0.0095
1861.00,0.0095
1860.00,0.0095
1859.00,0.0095
1858.00,0.0095
1857.00,0.0095
1856.00,0.0095
1855.00,0.0096
1854.00,0.0096
1853.00,0.0096
1852.00,0.0096
1851.00,0.0097
1850.00,0.0097
1849.00,0.0096
1848.00,0.0096
1847.00,0.0097
1846.00,0.0097
1845.00,0.0097
1844.00,0.0096
1843.00,0.0096
1842.00,0.0096
1841.00,0.0097
1840.00,0.0098
1839.00,0.0098
1838.00,0.0097
1837.00,0.0098
1836.00,0.0098
1835.00,0.0098
1834.00,0.0098
1833.00,0.0098
1832.00,0.0098
1831.00,0.0098
1830.00,0.0098
1829.00,0.0098
1828.00,0.0100
1827.00,0.0102
1826.00,0.0103
1825.00,0.0103
1824.00,0.0104
1823.00,0.0104
1822.00,0.0104
1821.00,0.0104
1820.00,0.0103
1819.00,0.0103
1818.00,0.0101
1817.00,0.0101
1816.00,0.0101
1815.00,0.0103
1814.00,0.0104
1813.00,0.0105
1812.00,0.0106
1811.00,0.0107
1810.00,0.0108
1809.00,0.0108
1808.00,0.0109
1807.00,0.0110
1806.00,0.0110
1805.00,0.0110
1804.00,0.0111
1803.00,0.0112
1802.00,0.0113
1801.00,0.0113
1800.00,0.0114
1799.00,0.0115
1798.00,0.0116
1797.00,0.0116
1796.00,0.0118
1795.00,0.0119
1794.00,0.0120
1793.00,0.0120
1792.00,0.0119
1791.00,0.0119
1790.00,0.0119
1789.00,0.0120
1788.00,0.0122
1787.00,0.0123
1786.00,0.0124
1785.00,0.0124
1784.00,0.0125
1783.00,0.0125
1782.00,0.0126
1781.00,0.0126
1780.00,0.0127
1779.00,0.0127
1778.00,0.0128
1777.00,0.0128
1776.00,0.0130
1775.00,0.0131
1774.00,0.0133
1773.00,0.0134
1772.00,0.0134
1771.00,0.0134
1770.00,0.0135
1769.00,0.0136
1768.00,0.0138
1767.00,0.0138
1766.00,0.0139
1765.00,0.0141
1764.00,0.0143
1763.00,0.0145
1762.00,0.0145
1761.00,0.0146
1760.00,0.0148
1759.00,0.0150
1758.00,0.0152
1757.00,0.0153
1756.00,0.0156
1755.00,0.0158
1754.00,0.0162
1753.00,0.0165
1752.00,0.0167
1751.00,0.0168
1750.00,0.0170
1749.00,0.0172
1748.00,0.0176
1747.00,0.0179
1746.00,0.0182
1745.00,0.0184
1744.00,0.0186
1743.00,0.0189
1742.00,0.0192
1741.00,0.0194
1740.00,0.0196
1739.00,0.0197
1738.00,0.0199
1737.00,0.0202
1736.00,0.0206
1735.00,0.0208
1734.00,0.0208
1733.00,0.0207
1732.00,0.0209
1731.00,0.0211
1730.00,0.0214
1729.00,0.0217
1728.00,0.0219
1727.00,0.0221
1726.00,0.0223
1725.00,0.0225
1724.00,0.0228
1723.00,0.0230
1722.00,0.0233
1721.00,0.0236
1720.00,0.0240
1719.00,0.0244
1718.00,0.0246
1717.00,0.0249
1716.00,0.0253
1715.00,0.0257
1714.00,0.0260
1713.00,0.0264
1712.00,0.0268
1711.00,0.0272
1710.00,0.0276
1709.00,0.0279
1708.00,0.0284
1707.00,0.0289
1706.00,0.0294
1705.00,0.0299
1704.00,0.0305
1703.00,0.0313
1702.00,0.0320
1701.00,0.0327
1700.00,0.0333
1699.00,0.0340
1698.00,0.0348
1697.00,0.0357
1696.00,0.0368
1695.00,0.0378
1694.00,0.0386
1693.00,0.0393
1692.00,0.0401
1691.00,0.0409
1690.00,0.0418
1689.00,0.0428
1688.00,0.0439
1687.00,0.0450
1686.00,0.0460
1685.00,0.0472
1684.00,0.0487
1683.00,0.0503
1682.00,0.0516
1681.00,0.0527
1680.00,0.0539
1679.00,0.0551
1678.00,0.0563
1677.00,0.0576
1676.00,0.0590
1675.00,0.0605
1674.00,0.0619
1673.00,0.0632
1672.00,0.0645
1671.00,0.0658
1670.00,0.0675
1669.00,0.0692
1668.00,0.0710
1667.00,0.0724
1666.00,0.0736
1665.00,0.0748
1664.00,0.0761
1663.00,0.0777
1662.00,0.0794
1661.00,0.0810
1660.00,0.0825
1659.00,0.0838
1658.00,0.0849
1657.00,0.0860
1656.00,0.0871
1655.00,0.0881
1654.00,0.0895
1653.00,0.0916
1652.00,0.0936
1651.00,0.0946
1650.00,0.0950
1649.00,0.0955
1648.00,0.0962
1647.00,0.0974
1646.00,0.0987
1645.00,0.0997
1644.00,0.1004
1643.00,0.1009
1642.00,0.1012
1641.00,0.1015
1640.00,0.1017
1639.00,0.1018
1638.00,0.1019
1637.00,0.1020
1636.00,0.1022
1635.00,0.1024
1634.00,0.1023
1633.00,0.1019
1632.00,0.1015
1631.00,0.1009
1630.00,0.1002
1629.00,0.0994
1628.00,0.0985
1627.00,0.0976
1626.00,0.0967
1625.00,0.0957
1624.00,0.0945
1623.00,0.0931
1622.00,0.0917
1621.00,0.0905
1620.00,0.0894
1619.00,0.0882
1618.00,0.0868
1617.00,0.0849
1616.00,0.0831
1615.00,0.0814
1614.00,0.0800
1613.00,0.0786
1612.00,0.0771
1611.00,0.0756
1610.00,0.0741
1609.00,0.0727
1608.00,0.0713
1607.00,0.0699
1606.00,0.0686
1605.00,0.0673
1604.00,0.0660
1603.00,0.0647
1602.00,0.0635
1601.00,0.0624
1600.00,0.0613
1599.00,0.0602
1598.00,0.0592
1597.00,0.0582
1596.00,0.0572
1595.00,0.0562
1594.00,0.0552
1593.00,0.0544
1592.00,0.0535
1591.00,0.0527
1590.00,0.0520
1589.00,0.0513
1588.00,0.0506
1587.00,0.0499
1586.00,0.0493
1585.00,0.0488
1584.00,0.0483
1583.00,0.0478
1582.00,0.0474
1581.00,0.0470
1580.00,0.0466
1579.00,0.0464
1578.00,0.0461
1577.00,0.0457
1576.00,0.0450
1575.00,0.0444
1574.00,0.0439
1573.00,0.0435
1572.00,0.0431
1571.00,0.0426
1570.00,0.0421
1569.00,0.0415
1568.00,0.0411
1567.00,0.0409
1566.00,0.0406
1565.00,0.0403
1564.00,0.0400
1563.00,0.0399
1562.00,0.0400
1561.00,0.0398
1560.00,0.0391
1559.00,0.0384
1558.00,0.0383
1557.00,0.0384
1556.00,0.0385
1555.00,0.0384
1554.00,0.0382
1553.00,0.0379
1552.00,0.0377
1551.00,0.0376
1550.00,0.0374
1549.00,0.0373
1548.00,0.0372
1547.00,0.0371
1546.00,0.0370
1545.00,0.0369
1544.00,0.0368
1543.00,0.0367
1542.00,0.0367
1541.00,0.0366
1540.00,0.0362
1539.00,0.0358
1538.00,0.0353
1537.00,0.0350
1536.00,0.0347
1535.00,0.0344
1534.00,0.0339
1533.00,0.0335
1532.00,0.0331
1531.00,0.0329
1530.00,0.0327
1529.00,0.0325
1528.00,0.0323
1527.00,0.0320
1526.00,0.0317
1525.00,0.0315
1524.00,0.0314
1523.00,0.0312
1522.00,0.0311
1521.00,0.0308
1520.00,0.0306
1519.00,0.0304
1518.00,0.0303
1517.00,0.0302
1516.00,0.0301
1515.00,0.0300
1514.00,0.0300
1513.00,0.0299
1512.00,0.0297
1511.00,0.0294
1510.00,0.0293
1509.00,0.0292
1508.00,0.0291
1507.00,0.0291
1506.00,0.0291
1505.00,0.0290
1504.00,0.0288
1503.00,0.0287
1502.00,0.0287
1501.00,0.0287
1500.00,0.0286
1499.00,0.0286
1498.00,0.0286
1497.00,0.0286
1496.00,0.0286
1495.00,0.0286
1494.00,0.0287
1493.00,0.0288
1492.00,0.0289
1491.00,0.0289
1490.00,0.0289
1489.00,0.0291
1488.00,0.0294
1487.00,0.0298
1486.00,0.0301
1485.00,0.0304
1484.00,0.0308
1483.00,0.0311
1482.00,0.0315
1481.00,0.0318
1480.00,0.0322
1479.00,0.0326
1478.00,0.0329
1477.00,0.0332
1476.00,0.0335
1475.00,0.0339
1474.00,0.0342
1473.00,0.0347
1472.00,0.0352
1471.00,0.0356
1470.00,0.0360
1469.00,0.0362
1468.00,0.0364
1467.00,0.0366
1466.00,0.0367
1465.00,0.0367
1464.00,0.0368
1463.00,0.0369
1462.00,0.0369
1461.00,0.0369
1460.00,0.0369
1459.00,0.0370
1458.00,0.0373
1457.00,0.0376
1456.00,0.0379
1455.00,0.0379
1454.00,0.0380
1453.00,0.0380
1452.00,0.0379
1451.00,0.0379
1450.00,0.0379
1449.00,0.0379
1448.00,0.0380
1447.00,0.0381
1446.00,0.0382
1445.00,0.0383
1444.00,0.0384
1443.00,0.0386
1442.00,0.0387
1441.00,0.0388
1440.00,0.0390
1439.00,0.0392
1438.00,0.0394
1437.00,0.0396
1436.00,0.0397
1435.00,0.0398
1434.00,0.0399
1433.00,0.0401
1432.00,0.0402
1431.00,0.0403
1430.00,0.0404
1429.00,0.0406
1428.00,0.0407
1427.00,0.0408
1426.00,0.0409
1425.00,0.0410
1424.00,0.0412
1423.00,0.0414
1422.00,0.0416
1421.00,0.0417
1420.00,0.0417
1419.00,0.0417
1418.00,0.0418
1417.00,0.0419
1416.00,0.0420
1415.00,0.0421
1414.00,0.0422
1413.00,0.0422
1412.00,0.0422
1411.00,0.0423
1410.00,0.0423
1409.00,0.0424
1408.00,0.0424
1407.00,0.0424
1406.00,0.0424
1405.00,0.0424
1404.00,0.0425
1403.00,0.0424
1402.00,0.0423
1401.00,0.0422
1400.00,0.0420
1399.00,0.0418
1398.00,0.0417
1397.00,0.0416
1396.00,0.0415
1395.00,0.0415
1394.00,0.0415
1393.00,0.0416
1392.00,0.0417
1391.00,0.0419
1390.00,0.0422
1389.00,0.0425
1388.00,0.0429
1387.00,0.0435
1386.00,0.0442
1385.00,0.0449
1384.00,0.0456
1383.00,0.0462
1382.00,0.0469
1381.00,0.0474
1380.00,0.0479
1379.00,0.0483
1378.00,0.0486
1377.00,0.0488
1376.00,0.0489
1375.00,0.0490
1374.00,0.0491
1373.00,0.0492
1372.00,0.0491
1371.00,0.0490
1370.00,0.0488
1369.00,0.0486
1368.00,0.0483
1367.00,0.0480
1366.00,0.0477
1365.00,0.0475
1364.00,0.0472
1363.00,0.0470
1362.00,0.0470
1361.00,0.0470
1360.00,0.0469
1359.00,0.0469
1358.00,0.0468
1357.00,0.0468
1356.00,0.0468
1355.00,0.0467
1354.00,0.0466
1353.00,0.0464
1352.00,0.0462
1351.00,0.0459
1350.00,0.0456
1349.00,0.0452
1348.00,0.0448
1347.00,0.0444
1346.00,0.0440
1345.00,0.0435
1344.00,0.0431
1343.00,0.0428
1342.00,0.0425
1341.00,0.0422
1340.00,0.0421
1339.00,0.0420
1338.00,0.0420
1337.00,0.0420
1336.00,0.0420
1335.00,0.0419
1334.00,0.0418
1333.00,0.0417
1332.00,0.0416
1331.00,0.0415
1330.00,0.0415
1329.00,0.0416
1328.00,0.0417
1327.00,0.0418
1326.00,0.0420
1325.00,0.0421
1324.00,0.0423
1323.00,0.0424
1322.00,0.0426
1321.00,0.0427
1320.00,0.0428
1319.00,0.0429
1318.00,0.0431
1317.00,0.0433
1316.00,0.0435
1315.00,0.0437
1314.00,0.0438
1313.00,0.0440
1312.00,0.0441
1311.00,0.0442
1310.00,0.0443
1309.00,0.0445
1308.00,0.0447
1307.00,0.0449
1306.00,0.0452
1305.00,0.0456
1304.00,0.0459
1303.00,0.0464
1302.00,0.0469
1301.00,0.0474
1300.00,0.0480
1299.00,0.0486
1298.00,0.0494
1297.00,0.0503
1296.00,0.0512
1295.00,0.0523
1294.00,0.0534
1293.00,0.0546
1292.00,0.0559
1291.00,0.0572
1290.00,0.0586
1289.00,0.0601
1288.00,0.0616
1287.00,0.0633
1286.00,0.0650
1285.00,0.0668
1284.00,0.0686
1283.00,0.0706
1282.00,0.0727
1281.00,0.0748
1280.00,0.0770
1279.00,0.0792
1278.00,0.0815
1277.00,0.0838
1276.00,0.0862
1275.00,0.0885
1274.00,0.0909
1273.00,0.0934
1272.00,0.0959
1271.00,0.0983
1270.00,0.1006
1269.00,0.1029
1268.00,0.1050
1267.00,0.1070
1266.00,0.1089
1265.00,0.1107
1264.00,0.1124
1263.00,0.1139
1262.00,0.1154
1261.00,0.1168
1260.00,0.1182
1259.00,0.1193
1258.00,0.1204
1257.00,0.1213
1256.00,0.1221
1255.00,0.1228
1254.00,0.1235
1253.00,0.1240
1252.00,0.1245
1251.00,0.1249
1250.00,0.1253
1249.00,0.1256
1248.00,0.1260
1247.00,0.1263
1246.00,0.1267
1245.00,0.1271
1244.00,0.1277
1243.00,0.1282
1242.00,0.1288
1241.00,0.1294
1240.00,0.1301
1239.00,0.1308
1238.00,0.1315
1237.00,0.1322
1236.00,0.1329
1235.00,0.1335
1234.00,0.1341
1233.00,0.1345
1232.00,0.1349
1231.00,0.1352
1230.00,0.1354
1229.00,0.1356
1228.00,0.1356
1227.00,0.1355
1226.00,0.1353
1225.00,0.1351
1224.00,0.1347
1223.00,0.1342
1222.00,0.1336
1221.00,0.1329
1220.00,0.1321
1219.00,0.1311
1218.00,0.1300
1217.00,0.1287
1216.00,0.1274
1215.00,0.1259
1214.00,0.1244
1213.00,0.1228
1212.00,0.1210
1211.00,0.1192
1210.00,0.1173
1209.00,0.1154
1208.00,0.1135
1207.00,0.1117
1206.00,0.1098
1205.00,0.1081
1204.00,0.1064
1203.00,0.1048
1202.00,0.1033
1201.00,0.1021
1200.00,0.1011
1199.00,0.1003
1198.00,0.0999
1197.00,0.0996
1196.00,0.0997
1195.00,0.0998
1194.00,0.1000
1193.00,0.1003
1192.00,0.1004
1191.00,0.1005
1190.00,0.1003
1189.00,0.1001
1188.00,0.0997
1187.00,0.0993
1186.00,0.0989
1185.00,0.0986
1184.00,0.0985
1183.00,0.0984
1182.00,0.0986
1181.00,0.0990
1180.00,0.0995
1179.00,0.1003
1178.00,0.1011
1177.00,0.1021
1176.00,0.1032
1175.00,0.1044
1174.00,0.1058
1173.00,0.1074
1172.00,0.1091
1171.00,0.1109
1170.00,0.1130
1169.00,0.1152
1168.00,0.1176
1167.00,0.1201
1166.00,0.1226
1165.00,0.1251
1164.00,0.1275
1163.00,0.1297
1162.00,0.1317
1161.00,0.1336
1160.00,0.1351
1159.00,0.1364
1158.00,0.1374
1157.00,0.1380
1156.00,0.1384
1155.00,0.1385
1154.00,0.1384
1153.00,0.1381
1152.00,0.1377
1151.00,0.1371
1150.00,0.1364
1149.00,0.1355
1148.00,0.1345
1147.00,0.1334
1146.00,0.1323
1145.00,0.1313
1144.00,0.1304
1143.00,0.1297
1142.00,0.1291
1141.00,0.1287
1140.00,0.1285
1139.00,0.1287
1138.00,0.1292
1137.00,0.1302
1136.00,0.1316
1135.00,0.1334
1134.00,0.1355
1133.00,0.1380
1132.00,0.1406
1131.00,0.1432
1130.00,0.1456
1129.00,0.1477
1128.00,0.1494
1127.00,0.1506
1126.00,0.1513
1125.00,0.1515
1124.00,0.1514
1123.00,0.1510
1122.00,0.1504
1121.00,0.1498
1120.00,0.1491
1119.00,0.1485
1118.00,0.1480
1117.00,0.1476
1116.00,0.1472
1115.00,0.1467
1114.00,0.1462
1113.00,0.1457
1112.00,0.1453
1111.00,0.1448
1110.00,0.1444
1109.00,0.1440
1108.00,0.1438
1107.00,0.1437
1106.00,0.1439
1105.00,0.1443
1104.00,0.1449
1103.00,0.1458
1102.00,0.1470
1101.00,0.1484
1100.00,0.1501
1099.00,0.1519
1098.00,0.1537
1097.00,0.1553
1096.00,0.1569
1095.00,0.1582
1094.00,0.1593
1093.00,0.1604
1092.00,0.1615
1091.00,0.1625
1090.00,0.1637
1089.00,0.1649
1088.00,0.1664
1087.00,0.1679
1086.00,0.1697
1085.00,0.1717
1084.00,0.1739
1083.00,0.1763
1082.00,0.1790
1081.00,0.1821
1080.00,0.1855
1079.00,0.1891
1078.00,0.1929
1077.00,0.1967
1076.00,0.2006
1075.00,0.2043
1074.00,0.2079
1073.00,0.2115
1072.00,0.2149
1071.00,0.2181
1070.00,0.2209
1069.00,0.2232
1068.00,0.2247
1067.00,0.2254
1066.00,0.2250
1065.00,0.2236
1064.00,0.2214
1063.00,0.2185
1062.00,0.2152
1061.00,0.2120
1060.00,0.2090
1059.00,0.2065
1058.00,0.2047
1057.00,0.2035
1056.00,0.2030
1055.00,0.2029
1054.00,0.2031
1053.00,0.2036
1052.00,0.2043
1051.00,0.2051
1050.00,0.2062
1049.00,0.2076
1048.00,0.2095
1047.00,0.2119
1046.00,0.2147
1045.00,0.2178
1044.00,0.2208
1043.00,0.2233
1042.00,0.2251
1041.00,0.2262
1040.00,0.2268
1039.00,0.2268
1038.00,0.2264
1037.00,0.2259
1036.00,0.2253
1035.00,0.2249
1034.00,0.2247
1033.00,0.2250
1032.00,0.2256
1031.00,0.2263
1030.00,0.2268
1029.00,0.2270
1028.00,0.2265
1027.00,0.2251
1026.00,0.2229
1025.00,0.2199
1024.00,0.2162
1023.00,0.2120
1022.00,0.2074
1021.00,0.2027
1020.00,0.1979
1019.00,0.1932
1018.00,0.1885
1017.00,0.1840
1016.00,0.1799
1015.00,0.1760
1014.00,0.1726
1013.00,0.1698
1012.00,0.1675
1011.00,0.1657
1010.00,0.1644
1009.00,0.1637
1008.00,0.1633
1007.00,0.1632
1006.00,0.1630
1005.00,0.1628
1004.00,0.1621
1003.00,0.1607
1002.00,0.1586
1001.00,0.1557
1000.00,0.1521
999.00,0.1482
998.00,0.1442
997.00,0.1404
996.00,0.1371
995.00,0.1343
994.00,0.1319
993.00,0.1299
992.00,0.1282
991.00,0.1266
990.00,0.1250
989.00,0.1234
988.00,0.1216
987.00,0.1195
986.00,0.1173
985.00,0.1151
984.00,0.1130
983.00,0.1109
982.00,0.1092
981.00,0.1077
980.00,0.1066
979.00,0.1059
978.00,0.1054
977.00,0.1052
976.00,0.1052
975.00,0.1055
974.00,0.1060
973.00,0.1066
972.00,0.1073
971.00,0.1079
970.00,0.1081
969.00,0.1076
968.00,0.1063
967.00,0.1042
966.00,0.1015
965.00,0.0985
964.00,0.0956
963.00,0.0928
962.00,0.0905
961.00,0.0887
960.00,0.0873
959.00,0.0863
958.00,0.0856
957.00,0.0854
956.00,0.0855
955.00,0.0858
954.00,0.0865
953.00,0.0874
952.00,0.0884
951.00,0.0895
950.00,0.0908
949.00,0.0921
948.00,0.0937
947.00,0.0954
946.00,0.0972
945.00,0.0993
944.00,0.1016
943.00,0.1043
942.00,0.1074
941.00,0.1110
940.00,0.1151
939.00,0.1197
938.00,0.1247
937.00,0.1300
936.00,0.1354
935.00,0.1405
934.00,0.1453
933.00,0.1497
932.00,0.1535
931.00,0.1568
930.00,0.1597
929.00,0.1623
928.00,0.1645
927.00,0.1662
926.00,0.1676
925.00,0.1685
924.00,0.1690
923.00,0.1693
922.00,0.1693
921.00,0.1692
920.00,0.1689
919.00,0.1685
918.00,0.1680
917.00,0.1673
916.00,0.1663
915.00,0.1649
914.00,0.1634
913.00,0.1617
912.00,0.1598
911.00,0.1578
910.00,0.1557
909.00,0.1535
908.00,0.1515
907.00,0.1495
906.00,0.1477
905.00,0.1459
904.00,0.1444
903.00,0.1430
902.00,0.1418
901.00,0.1407
900.00,0.1396
899.00,0.1386
898.00,0.1377
897.00,0.1369
896.00,0.1362
895.00,0.1356
894.00,0.1352
893.00,0.1348
892.00,0.1343
891.00,0.1338
890.00,0.1330
889.00,0.1321
888.00,0.1308
887.00,0.1291
886.00,0.1270
885.00,0.1246
884.00,0.1218
883.00,0.1190
882.00,0.1163
881.00,0.1139
880.00,0.1120
879.00,0.1106
878.00,0.1098
877.00,0.1096
876.00,0.1098
875.00,0.1102
874.00,0.1105
873.00,0.1105
872.00,0.1101
871.00,0.1096
870.00,0.1089
869.00,0.1082
868.00,0.1076
867.00,0.1071
866.00,0.1069
865.00,0.1069
864.00,0.1073
863.00,0.1080
862.00,0.1091
861.00,0.1105
860.00,0.1122
859.00,0.1142
858.00,0.1164
857.00,0.1190
856.00,0.1220
855.00,0.1252
854.00,0.1286
853.00,0.1321
852.00,0.1356
851.00,0.1389
850.00,0.1420
849.00,0.1447
848.00,0.1469
847.00,0.1484
846.00,0.1492
845.00,0.1491
844.00,0.1481
843.00,0.1465
842.00,0.1443
841.00,0.1417
840.00,0.1388
839.00,0.1358
838.00,0.1328
837.00,0.1300
836.00,0.1275
835.00,0.1252
834.00,0.1231
833.00,0.1213
832.00,0.1196
831.00,0.1181
830.00,0.1168
829.00,0.1158
828.00,0.1148
827.00,0.1139
826.00,0.1131
825.00,0.1125
824.00,0.1121
823.00,0.1117
822.00,0.1115
821.00,0.1114
820.00,0.1113
819.00,0.1112
818.00,0.1113
817.00,0.1115
816.00,0.1117
815.00,0.1120
814.00,0.1125
813.00,0.1132
812.00,0.1139
811.00,0.1148
810.00,0.1157
809.00,0.1167
808.00,0.1177
807.00,0.1188
806.00,0.1198
805.00,0.1208
804.00,0.1218
803.00,0.1226
802.00,0.1233
801.00,0.1238
800.00,0.1240
799.00,0.1241
798.00,0.1240
797.00,0.1239
796.00,0.1236
795.00,0.1233
794.00,0.1229
793.00,0.1226
792.00,0.1224
791.00,0.1221
790.00,0.1219
789.00,0.1219
788.00,0.1219
787.00,0.1221
786.00,0.1224
785.00,0.1228
784.00,0.1234
783.00,0.1240
782.00,0.1247
781.00,0.1256
780.00,0.1267
779.00,0.1279
778.00,0.1292
777.00,0.1303
776.00,0.1314
775.00,0.1323
774.00,0.1331
773.00,0.1336
772.00,0.1338
771.00,0.1338
770.00,0.1337
769.00,0.1335
768.00,0.1333
767.00,0.1331
766.00,0.1330
765.00,0.1330
764.00,0.1331
763.00,0.1333
762.00,0.1336
761.00,0.1341
760.00,0.1346
759.00,0.1352
758.00,0.1359
757.00,0.1367
756.00,0.1376
755.00,0.1388
754.00,0.1401
753.00,0.1417
752.00,0.1434
751.00,0.1454
750.00,0.1477
749.00,0.1501
748.00,0.1525
747.00,0.1548
746.00,0.1570
745.00,0.1589
744.00,0.1606
743.00,0.1621
742.00,0.1636
741.00,0.1651
740.00,0.1666
739.00,0.1680
738.00,0.1694
737.00,0.1705
736.00,0.1714
735.00,0.1720
734.00,0.1726
733.00,0.1732
732.00,0.1739
731.00,0.1746
730.00,0.1755
729.00,0.1763
728.00,0.1771
727.00,0.1780
726.00,0.1788
725.00,0.1795
724.00,0.1800
723.00,0.1802
722.00,0.1803
721.00,0.1801
720.00,0.1797
719.00,0.1793
718.00,0.1790
717.00,0.1790
716.00,0.1790
715.00,0.1794
714.00,0.1800
713.00,0.1810
712.00,0.1824
711.00,0.1841
710.00,0.1861
709.00,0.1882
708.00,0.1903
707.00,0.1922
706.00,0.1941
705.00,0.1958
704.00,0.1971
703.00,0.1980
702.00,0.1985
701.00,0.1985
700.00,0.1982
699.00,0.1976
698.00,0.1968
697.00,0.1959
696.00,0.1949
695.00,0.1937
694.00,0.1924
693.00,0.1911
692.00,0.1898
691.00,0.1885
690.00,0.1874
689.00,0.1866
688.00,0.1860
687.00,0.1854
686.00,0.1849
685.00,0.1844
684.00,0.1839
683.00,0.1835
682.00,0.1832
681.00,0.1833
680.00,0.1836
679.00,0.1839
678.00,0.1842
677.00,0.1844
676.00,0.1848
675.00,0.1854
674.00,0.1862
673.00,0.1870
672.00,0.1876
671.00,0.1879
670.00,0.1881
669.00,0.1886
668.00,0.1898
667.00,0.1910
666.00,0.1915
665.00,0.1915
664.00,0.1913
663.00,0.1912
662.00,0.1911
661.00,0.1911
660.00,0.1911
659.00,0.1912
658.00,0.1915
657.00,0.1918
656.00,0.1921
655.00,0.1924
654.00,0.1927
653.00,0.1929
652.00,0.1930
651.00,0.1932
650.00,0.1936
649.00,0.1942
648.00,0.1948
647.00,0.1953
646.00,0.1957
645.00,0.1960
644.00,0.1964
643.00,0.1968
642.00,0.1973
641.00,0.1978
640.00,0.1985
639.00,0.1993
638.00,0.2003
637.00,0.2012
636.00,0.2021
635.00,0.2032
634.00,0.2044
633.00,0.2057
632.00,0.2071
631.00,0.2086
630.00,0.2104
629.00,0.2124
628.00,0.2145
627.00,0.2165
626.00,0.2186
625.00,0.2207
624.00,0.2228
623.00,0.2250
622.00,0.2272
621.00,0.2291
620.00,0.2306
619.00,0.2319
618.00,0.2331
617.00,0.2343
616.00,0.2356
615.00,0.2370
614.00,0.2383
613.00,0.2396
612.00,0.2408
611.00,0.2419
610.00,0.2430
609.00,0.2442
608.00,0.2453
607.00,0.2461
606.00,0.2468
605.00,0.2474
604.00,0.2479
603.00,0.2482
602.00,0.2483
601.00,0.2483
600.00,0.2485
599.00,0.2488
598.00,0.2495
597.00,0.2504
596.00,0.2514
595.00,0.2525
594.00,0.2536
593.00,0.2549
592.00,0.2565
591.00,0.2585
590.00,0.2607
589.00,0.2627
588.00,0.2646
587.00,0.2664
586.00,0.2684
585.00,0.2706
584.00,0.2731
583.00,0.2757
582.00,0.2781
581.00,0.2802
580.00,0.2820
579.00,0.2836
578.00,0.2850
577.00,0.2864
576.00,0.2878
575.00,0.2890
574.00,0.2901
573.00,0.2910
572.00,0.2917
571.00,0.2923
570.00,0.2929
569.00,0.2935
568.00,0.2941
567.00,0.2944
566.00,0.2946
565.00,0.2950
564.00,0.2957
563.00,0.2967
562.00,0.2978
561.00,0.2988
560.00,0.2995
559.00,0.2999
558.00,0.3001
557.00,0.3005
556.00,0.3011
555.00,0.3016
554.00,0.3018
553.00,0.3017
552.00,0.3016
551.00,0.3015
550.00,0.3018
549.00,0.3024
548.00,0.3033
547.00,0.3043
546.00,0.3053
545.00,0.3063
544.00,0.3071
543.00,0.3077
542.00,0.3081
541.00,0.3083
540.00,0.3083
539.00,0.3081
538.00,0.3077
537.00,0.3071
536.00,0.3065
535.00,0.3060
534.00,0.3053
533.00,0.3043
532.00,0.3033
531.00,0.3027
530.00,0.3027
529.00,0.3031
528.00,0.3034
527.00,0.3036
526.00,0.3035
525.00,0.3034
524.00,0.3035
523.00,0.3037
522.00,0.3041
521.00,0.3049
520.00,0.3060
519.00,0.3071
518.00,0.3077
517.00,0.3076
516.00,0.3070
515.00,0.3062
514.00,0.3055
513.00,0.3051
512.00,0.3048
511.00,0.3046
510.00,0.3045
509.00,0.3044
508.00,0.3044
507.00,0.3042
506.00,0.3039
505.00,0.3037
504.00,0.3037
503.00,0.3040
502.00,0.3041
501.00,0.3040
500.00,0.3039
499.00,0.3037
498.00,0.3035
497.00,0.3034
496.00,0.3033
495.00,0.3035
494.00,0.3038
493.00,0.3046
492.00,0.3057
491.00,0.3068
490.00,0.3071
489.00,0.3065
488.00,0.3058
487.00,0.3055
486.00,0.3058
485.00,0.3063
484.00,0.3068
483.00,0.3073
482.00,0.3078
481.00,0.3081
480.00,0.3084
479.00,0.3087
478.00,0.3092
477.00,0.3099
476.00,0.3104
475.00,0.3105
474.00,0.3101
473.00,0.3096
472.00,0.3094
471.00,0.3096
470.00,0.3099
469.00,0.3103
468.00,0.3107
467.00,0.3111
466.00,0.3112
465.00,0.3111
464.00,0.3109
463.00,0.3111
462.00,0.3116
461.00,0.3123
460.00,0.3126
459.00,0.3126
458.00,0.3125
457.00,0.3126
456.00,0.3129
455.00,0.3131
454.00,0.3133
453.00,0.3138
452.00,0.3146
451.00,0.3153
450.00,0.3156
