Created as New Dataset,Sample 010 By Administrator Date Thursday, May 29 2025
cm-1,A
4000.00,0.0095
3999.00,0.0095
3998.00,0.0096
3997.00,0.0096
3996.00,0.0096
3995.00,0.0096
3994.00,0.0096
3993.00,0.0096
3992.00,0.0096
3991.00,0.0096
3990.00,0.0096
3989.00,0.0096
3988.00,0.0096
3987.00,0.0096
3986.00,0.0096
3985.00,0.0095
3984.00,0.0095
3983.00,0.0095
3982.00,0.0095
3981.00,0.0096
3980.00,0.0096
3979.00,0.0097
3978.00,0.0097
3977.00,0.0097
3976.00,0.0097
3975.00,0.0096
3974.00,0.0096
3973.00,0.0096
3972.00,0.0096
3971.00,0.0096
3970.00,0.0095
3969.00,0.0095
3968.00,0.0095
3967.00,0.0095
3966.00,0.0096
3965.00,0.0096
3964.00,0.0096
3963.00,0.0096
3962.00,0.0096
3961.00,0.0096
3960.00,0.0096
3959.00,0.0096
3958.00,0.0096
3957.00,0.0096
3956.00,0.0096
3955.00,0.0095
3954.00,0.0095
3953.00,0.0095
3952.00,0.0096
3951.00,0.0096
3950.00,0.0096
3949.00,0.0096
3948.00,0.0096
3947.00,0.0097
3946.00,0.0097
3945.00,0.0097
3944.00,0.0097
3943.00,0.0097
3942.00,0.0096
3941.00,0.0096
3940.00,0.0096
3939.00,0.0096
3938.00,0.0096
3937.00,0.0097
3936.00,0.0097
3935.00,0.0097
3934.00,0.0097
3933.00,0.0097
3932.00,0.0097
3931.00,0.0097
3930.00,0.0097
3929.00,0.0097
3928.00,0.0097
3927.00,0.0097
3926.00,0.0097
3925.00,0.0097
3924.00,0.0097
3923.00,0.0097
3922.00,0.0097
3921.00,0.0097
3920.00,0.0097
3919.00,0.0097
3918.00,0.0097
3917.00,0.0097
3916.00,0.0096
3915.00,0.0095
3914.00,0.0095
3913.00,0.0095
3912.00,0.0095
3911.00,0.0095
3910.00,0.0096
3909.00,0.0096
3908.00,0.0097
3907.00,0.0097
3906.00,0.0097
3905.00,0.0097
3904.00,0.0098
3903.00,0.0098
3902.00,0.0098
3901.00,0.0097
3900.00,0.0096
3899.00,0.0095
3898.00,0.0095
3897.00,0.0095
3896.00,0.0095
3895.00,0.0095
3894.00,0.0096
3893.00,0.0096
3892.00,0.0096
3891.00,0.0096
3890.00,0.0096
3889.00,0.0096
3888.00,0.0096
3887.00,0.0096
3886.00,0.0096
3885.00,0.0096
3884.00,0.0096
3883.00,0.0096
3882.00,0.0096
3881.00,0.0096
3880.00,0.0095
3879.00,0.0095
3878.00,0.0096
3877.00,0.0096
3876.00,0.0096
3875.00,0.0096
3874.00,0.0097
3873.00,0.0097
3872.00,0.0098
3871.00,0.0097
3870.00,0.0096
3869.00,0.0096
3868.00,0.0096
3867.00,0.0096
3866.00,0.0096
3865.00,0.0097
3864.00,0.0097
3863.00,0.0097
3862.00,0.0097
3861.00,0.0097
3860.00,0.0096
3859.00,0.0096
3858.00,0.0095
3857.00,0.0094
3856.00,0.0093
3855.00,0.0093
3854.00,0.0094
3853.00,0.0094
3852.00,0.0094
3851.00,0.0093
3850.00,0.0093
3849.00,0.0094
3848.00,0.0094
3847.00,0.0095
3846.00,0.0096
3845.00,0.0096
3844.00,0.0097
3843.00,0.0097
3842.00,0.0097
3841.00,0.0097
3840.00,0.0096
3839.00,0.0096
3838.00,0.0095
3837.00,0.0095
3836.00,0.0095
3835.00,0.0095
3834.00,0.0096
3833.00,0.0096
3832.00,0.0096
3831.00,0.0096
3830.00,0.0096
3829.00,0.0096
3828.00,0.0096
3827.00,0.0096
3826.00,0.0096
3825.00,0.0096
3824.00,0.0096
3823.00,0.0096
3822.00,0.0096
3821.00,0.0096
3820.00,0.0096
3819.00,0.0096
3818.00,0.0095
3817.00,0.0095
3816.00,0.0094
3815.00,0.0094
3814.00,0.0095
3813.00,0.0095
3812.00,0.0095
3811.00,0.0096
3810.00,0.0096
3809.00,0.0097
3808.00,0.0097
3807.00,0.0098
3806.00,0.0098
3805.00,0.0098
3804.00,0.0097
3803.00,0.0097
3802.00,0.0096
3801.00,0.0096
3800.00,0.0096
3799.00,0.0096
3798.00,0.0096
3797.00,0.0096
3796.00,0.0096
3795.00,0.0096
3794.00,0.0096
3793.00,0.0096
3792.00,0.0096
3791.00,0.0097
3790.00,0.0097
3789.00,0.0098
3788.00,0.0098
3787.00,0.0098
3786.00,0.0098
3785.00,0.0098
3784.00,0.0098
3783.00,0.0099
3782.00,0.0099
3781.00,0.0099
3780.00,0.0100
3779.00,0.0099
3778.00,0.0099
3777.00,0.0099
3776.00,0.0099
3775.00,0.0100
3774.00,0.0100
3773.00,0.0101
3772.00,0.0100
3771.00,0.0100
3770.00,0.0099
3769.00,0.0098
3768.00,0.0099
3767.00,0.0099
3766.00,0.0100
3765.00,0.0100
3764.00,0.0101
3763.00,0.0102
3762.00,0.0102
3761.00,0.0103
3760.00,0.0103
3759.00,0.0103
3758.00,0.0104
3757.00,0.0104
3756.00,0.0104
3755.00,0.0104
3754.00,0.0104
3753.00,0.0104
3752.00,0.0104
3751.00,0.0104
3750.00,0.0104
3749.00,0.0103
3748.00,0.0103
3747.00,0.0103
3746.00,0.0103
3745.00,0.0103
3744.00,0.0103
3743.00,0.0104
3742.00,0.0104
3741.00,0.0105
3740.00,0.0105
3739.00,0.0106
3738.00,0.0106
3737.00,0.0106
3736.00,0.0106
3735.00,0.0106
3734.00,0.0106
3733.00,0.0106
3732.00,0.0105
3731.00,0.0106
3730.00,0.0106
3729.00,0.0107
3728.00,0.0108
3727.00,0.0109
3726.00,0.0110
3725.00,0.0110
3724.00,0.0110
3723.00,0.0110
3722.00,0.0110
3721.00,0.0110
3720.00,0.0110
3719.00,0.0110
3718.00,0.0110
3717.00,0.0111
3716.00,0.0113
3715.00,0.0114
3714.00,0.0115
3713.00,0.0116
3712.00,0.0116
3711.00,0.0116
3710.00,0.0115
3709.00,0.0115
3708.00,0.0115
3707.00,0.0116
3706.00,0.0117
3705.00,0.0118
3704.00,0.0118
3703.00,0.0119
3702.00,0.0119
3701.00,0.0119
3700.00,0.0120
3699.00,0.0121
3698.00,0.0123
3697.00,0.0124
3696.00,0.0125
3695.00,0.0126
3694.00,0.0128
3693.00,0.0129
3692.00,0.0130
3691.00,0.0131
3690.00,0.0132
3689.00,0.0134
3688.00,0.0135
3687.00,0.0136
3686.00,0.0138
3685.00,0.0139
3684.00,0.0141
3683.00,0.0143
3682.00,0.0145
3681.00,0.0146
3680.00,0.0148
3679.00,0.0149
3678.00,0.0151
3677.00,0.0152
3676.00,0.0155
3675.00,0.0157
3674.00,0.0160
3673.00,0.0163
3672.00,0.0165
3671.00,0.0168
3670.00,0.0170
3669.00,0.0173
3668.00,0.0176
3667.00,0.0179
3666.00,0.0182
3665.00,0.0185
3664.00,0.0188
3663.00,0.0191
3662.00,0.0194
3661.00,0.0197
3660.00,0.0200
3659.00,0.0203
3658.00,0.0206
3657.00,0.0210
3656.00,0.0215
3655.00,0.0219
3654.00,0.0222
3653.00,0.0226
3652.00,0.0229
3651.00,0.0233
3650.00,0.0239
3649.00,0.0245
3648.00,0.0251
3647.00,0.0257
3646.00,0.0261
3645.00,0.0265
3644.00,0.0269
3643.00,0.0273
3642.00,0.0277
3641.00,0.0282
3640.00,0.0286
3639.00,0.0290
3638.00,0.0295
3637.00,0.0300
3636.00,0.0305
3635.00,0.0310
3634.00,0.0314
3633.00,0.0318
3632.00,0.0322
3631.00,0.0326
3630.00,0.0330
3629.00,0.0336
3628.00,0.0343
3627.00,0.0349
3626.00,0.0355
3625.00,0.0360
3624.00,0.0365
3623.00,0.0370
3622.00,0.0374
3621.00,0.0379
3620.00,0.0384
3619.00,0.0389
3618.00,0.0395
3617.00,0.0400
3616.00,0.0406
3615.00,0.0411
3614.00,0.0416
3613.00,0.0421
3612.00,0.0426
3611.00,0.0431
3610.00,0.0437
3609.00,0.0442
3608.00,0.0447
3607.00,0.0452
3606.00,0.0458
3605.00,0.0463
3604.00,0.0467
3603.00,0.0472
3602.00,0.0476
3601.00,0.0480
3600.00,0.0484
3599.00,0.0489
3598.00,0.0494
3597.00,0.0499
3596.00,0.0505
3595.00,0.0510
3594.00,0.0515
3593.00,0.0520
3592.00,0.0524
3591.00,0.0529
3590.00,0.0533
3589.00,0.0538
3588.00,0.0544
3587.00,0.0549
3586.00,0.0554
3585.00,0.0559
3584.00,0.0563
3583.00,0.0567
3582.00,0.0572
3581.00,0.0576
3580.00,0.0581
3579.00,0.0586
3578.00,0.0590
3577.00,0.0595
3576.00,0.0599
3575.00,0.0604
3574.00,0.0608
3573.00,0.0612
3572.00,0.0617
3571.00,0.0621
3570.00,0.0626
3569.00,0.0630
3568.00,0.0635
3567.00,0.0640
3566.00,0.0645
3565.00,0.0650
3564.00,0.0655
3563.00,0.0659
3562.00,0.0663
3561.00,0.0667
3560.00,0.0671
3559.00,0.0676
3558.00,0.0680
3557.00,0.0684
3556.00,0.0689
3555.00,0.0694
3554.00,0.0698
3553.00,0.0703
3552.00,0.0708
3551.00,0.0712
3550.00,0.0717
3549.00,0.0721
3548.00,0.0726
3547.00,0.0730
3546.00,0.0734
3545.00,0.0739
3544.00,0.0743
3543.00,0.0748
3542.00,0.0752
3541.00,0.0756
3540.00,0.0761
3539.00,0.0765
3538.00,0.0769
3537.00,0.0773
3536.00,0.0777
3535.00,0.0781
3534.00,0.0785
3533.00,0.0789
3532.00,0.0792
3531.00,0.0796
3530.00,0.0800
3529.00,0.0805
3528.00,0.0809
3527.00,0.0814
3526.00,0.0819
3525.00,0.0823
3524.00,0.0828
3523.00,0.0832
3522.00,0.0836
3521.00,0.0840
3520.00,0.0844
3519.00,0.0848
3518.00,0.0852
3517.00,0.0856
3516.00,0.0860
3515.00,0.0864
3514.00,0.0868
3513.00,0.0872
3512.00,0.0876
3511.00,0.0880
3510.00,0.0884
3509.00,0.0888
3508.00,0.0892
3507.00,0.0896
3506.00,0.0900
3505.00,0.0904
3504.00,0.0909
3503.00,0.0914
3502.00,0.0918
3501.00,0.0922
3500.00,0.0925
3499.00,0.0929
3498.00,0.0933
3497.00,0.0937
3496.00,0.0941
3495.00,0.0945
3494.00,0.0949
3493.00,0.0952
3492.00,0.0955
3491.00,0.0959
3490.00,0.0962
3489.00,0.0966
3488.00,0.0970
3487.00,0.0973
3486.00,0.0977
3485.00,0.0981
3484.00,0.0984
3483.00,0.0989
3482.00,0.0993
3481.00,0.0997
3480.00,0.1001
3479.00,0.1004
3478.00,0.1007
3477.00,0.1010
3476.00,0.1014
3475.00,0.1017
3474.00,0.1021
3473.00,0.1024
3472.00,0.1028
3471.00,0.1032
3470.00,0.1036
3469.00,0.1040
3468.00,0.1043
3467.00,0.1045
3466.00,0.1048
3465.00,0.1052
3464.00,0.1055
3463.00,0.1059
3462.00,0.1063
3461.00,0.1066
3460.00,0.1068
3459.00,0.1071
3458.00,0.1074
3457.00,0.1076
3456.00,0.1079
3455.00,0.1082
3454.00,0.1084
3453.00,0.1087
3452.00,0.1090
3451.00,0.1093
3450.00,0.1096
3449.00,0.1099
3448.00,0.1102
3447.00,0.1105
3446.00,0.1107
3445.00,0.1110
3444.00,0.1112
3443.00,0.1115
3442.00,0.1117
3441.00,0.1120
3440.00,0.1123
3439.00,0.1126
3438.00,0.1129
3437.00,0.1131
3436.00,0.1134
3435.00,0.1135
3434.00,0.1137
3433.00,0.1140
3432.00,0.1142
3431.00,0.1144
3430.00,0.1146
3429.00,0.1147
3428.00,0.1149
3427.00,0.1150
3426.00,0.1152
3425.00,0.1153
3424.00,0.1154
3423.00,0.1155
3422.00,0.1157
3421.00,0.1159
3420.00,0.1161
3419.00,0.1163
3418.00,0.1164
3417.00,0.1166
3416.00,0.1167
3415.00,0.1169
3414.00,0.1170
3413.00,0.1171
3412.00,0.1172
3411.00,0.1173
3410.00,0.1174
3409.00,0.1175
3408.00,0.1176
3407.00,0.1176
3406.00,0.1176
3405.00,0.1177
3404.00,0.1179
3403.00,0.1180
3402.00,0.1181
3401.00,0.1182
3400.00,0.1182
3399.00,0.1181
3398.00,0.1181
3397.00,0.1181
3396.00,0.1181
3395.00,0.1181
3394.00,0.1181
3393.00,0.1181
3392.00,0.1181
3391.00,0.1180
3390.00,0.1179
3389.00,0.1178
3388.00,0.1176
3387.00,0.1175
3386.00,0.1174
3385.00,0.1174
3384.00,0.1173
3383.00,0.1172
3382.00,0.1171
3381.00,0.1171
3380.00,0.1170
3379.00,0.1169
3378.00,0.1168
3377.00,0.1166
3376.00,0.1164
3375.00,0.1163
3374.00,0.1163
3373.00,0.1162
3372.00,0.1162
3371.00,0.1161
3370.00,0.1160
3369.00,0.1158
3368.00,0.1156
3367.00,0.1154
3366.00,0.1151
3365.00,0.1148
3364.00,0.1145
3363.00,0.1143
3362.00,0.1142
3361.00,0.1140
3360.00,0.1138
3359.00,0.1135
3358.00,0.1132
3357.00,0.1130
3356.00,0.1127
3355.00,0.1125
3354.00,0.1123
3353.00,0.1121
3352.00,0.1119
3351.00,0.1117
3350.00,0.1114
3349.00,0.1111
3348.00,0.1107
3347.00,0.1104
3346.00,0.1101
3345.00,0.1099
3344.00,0.1097
3343.00,0.1095
3342.00,0.1092
3341.00,0.1090
3340.00,0.1087
3339.00,0.1084
3338.00,0.1081
3337.00,0.1078
3336.00,0.1075
3335.00,0.1071
3334.00,0.1068
3333.00,0.1065
3332.00,0.1062
3331.00,0.1059
3330.00,0.1056
3329.00,0.1054
3328.00,0.1051
3327.00,0.1048
3326.00,0.1045
3325.00,0.1042
3324.00,0.1038
3323.00,0.1035
3322.00,0.1032
3321.00,0.1029
3320.00,0.1026
3319.00,0.1023
3318.00,0.1020
3317.00,0.1017
3316.00,0.1014
3315.00,0.1011
3314.00,0.1008
3313.00,0.1006
3312.00,0.1004
3311.00,0.1001
3310.00,0.0999
3309.00,0.0997
3308.00,0.0994
3307.00,0.0991
3306.00,0.0988
3305.00,0.0985
3304.00,0.0982
3303.00,0.0979
3302.00,0.0976
3301.00,0.0973
3300.00,0.0970
3299.00,0.0968
3298.00,0.0965
3297.00,0.0963
3296.00,0.0961
3295.00,0.0959
3294.00,0.0957
3293.00,0.0954
3292.00,0.0951
3291.00,0.0948
3290.00,0.0945
3289.00,0.0943
3288.00,0.0940
3287.00,0.0938
3286.00,0.0935
3285.00,0.0932
3284.00,0.0929
3283.00,0.0926
3282.00,0.0924
3281.00,0.0921
3280.00,0.0919
3279.00,0.0916
3278.00,0.0914
3277.00,0.0912
3276.00,0.0910
3275.00,0.0908
3274.00,0.0905
3273.00,0.0902
3272.00,0.0899
3271.00,0.0896
3270.00,0.0893
3269.00,0.0891
3268.00,0.0888
3267.00,0.0886
3266.00,0.0884
3265.00,0.0881
3264.00,0.0879
3263.00,0.0876
3262.00,0.0873
3261.00,0.0870
3260.00,0.0867
3259.00,0.0865
3258.00,0.0862
3257.00,0.0859
3256.00,0.0856
3255.00,0.0853
3254.00,0.0850
3253.00,0.0847
3252.00,0.0844
3251.00,0.0841
3250.00,0.0838
3249.00,0.0836
3248.00,0.0833
3247.00,0.0830
3246.00,0.0826
3245.00,0.0823
3244.00,0.0820
3243.00,0.0816
3242.00,0.0813
3241.00,0.0810
3240.00,0.0807
3239.00,0.0804
3238.00,0.0800
3237.00,0.0797
3236.00,0.0794
3235.00,0.0791
3234.00,0.0788
3233.00,0.0784
3232.00,0.0780
3231.00,0.0776
3230.00,0.0772
3229.00,0.0769
3228.00,0.0765
3227.00,0.0761
3226.00,0.0758
3225.00,0.0754
3224.00,0.0750
3223.00,0.0746
3222.00,0.0742
3221.00,0.0739
3220.00,0.0735
3219.00,0.0731
3218.00,0.0727
3217.00,0.0723
3216.00,0.0720
3215.00,0.0716
3214.00,0.0712
3213.00,0.0707
3212.00,0.0703
3211.00,0.0699
3210.00,0.0695
3209.00,0.0692
3208.00,0.0688
3207.00,0.0684
3206.00,0.0680
3205.00,0.0676
3204.00,0.0672
3203.00,0.0668
3202.00,0.0664
3201.00,0.0660
3200.00,0.0656
3199.00,0.0653
3198.00,0.0649
3197.00,0.0645
3196.00,0.0641
3195.00,0.0637
3194.00,0.0633
3193.00,0.0629
3192.00,0.0625
3191.00,0.0620
3190.00,0.0616
3189.00,0.0612
3188.00,0.0609
3187.00,0.0605
3186.00,0.0601
3185.00,0.0597
3184.00,0.0593
3183.00,0.0589
3182.00,0.0585
3181.00,0.0581
3180.00,0.0577
3179.00,0.0573
3178.00,0.0569
3177.00,0.0565
3176.00,0.0561
3175.00,0.0558
3174.00,0.0554
3173.00,0.0550
3172.00,0.0546
3171.00,0.0542
3170.00,0.0538
3169.00,0.0535
3168.00,0.0531
3167.00,0.0528
3166.00,0.0525
3165.00,0.0521
3164.00,0.0517
3163.00,0.0513
3162.00,0.0509
3161.00,0.0506
3160.00,0.0503
3159.00,0.0500
3158.00,0.0497
3157.00,0.0493
3156.00,0.0490
3155.00,0.0486
3154.00,0.0483
3153.00,0.0480
3152.00,0.0476
3151.00,0.0473
3150.00,0.0470
3149.00,0.0467
3148.00,0.0464
3147.00,0.0461
3146.00,0.0458
3145.00,0.0455
3144.00,0.0451
3143.00,0.0448
3142.00,0.0445
3141.00,0.0442
3140.00,0.0439
3139.00,0.0436
3138.00,0.0433
3137.00,0.0430
3136.00,0.0427
3135.00,0.0424
3134.00,0.0421
3133.00,0.0418
3132.00,0.0415
3131.00,0.0412
3130.00,0.0409
3129.00,0.0406
3128.00,0.0403
3127.00,0.0400
3126.00,0.0398
3125.00,0.0395
3124.00,0.0393
3123.00,0.0391
3122.00,0.0389
3121.00,0.0387
3120.00,0.0384
3119.00,0.0382
3118.00,0.0380
3117.00,0.0377
3116.00,0.0375
3115.00,0.0372
3114.00,0.0369
3113.00,0.0366
3112.00,0.0364
3111.00,0.0361
3110.00,0.0359
3109.00,0.0357
3108.00,0.0355
3107.00,0.0352
3106.00,0.0349
3105.00,0.0347
3104.00,0.0344
3103.00,0.0342
3102.00,0.0340
3101.00,0.0338
3100.00,0.0337
3099.00,0.0334
3098.00,0.0332
3097.00,0.0330
3096.00,0.0328
3095.00,0.0326
3094.00,0.0324
3093.00,0.0322
3092.00,0.0320
3091.00,0.0319
3090.00,0.0317
3089.00,0.0315
3088.00,0.0313
3087.00,0.0312
3086.00,0.0310
3085.00,0.0308
3084.00,0.0306
3083.00,0.0304
3082.00,0.0302
3081.00,0.0300
3080.00,0.0299
3079.00,0.0297
3078.00,0.0295
3077.00,0.0293
3076.00,0.0291
3075.00,0.0289
3074.00,0.0287
3073.00,0.0285
3072.00,0.0284
3071.00,0.0283
3070.00,0.0282
3069.00,0.0280
3068.00,0.0279
3067.00,0.0277
3066.00,0.0276
3065.00,0.0274
3064.00,0.0272
3063.00,0.0271
3062.00,0.0269
3061.00,0.0267
3060.00,0.0266
3059.00,0.0264
3058.00,0.0263
3057.00,0.0261
3056.00,0.0260
3055.00,0.0258
3054.00,0.0256
3053.00,0.0255
3052.00,0.0254
3051.00,0.0253
3050.00,0.0251
3049.00,0.0250
3048.00,0.0249
3047.00,0.0247
3046.00,0.0246
3045.00,0.0245
3044.00,0.0244
3043.00,0.0243
3042.00,0.0242
3041.00,0.0240
3040.00,0.0239
3039.00,0.0238
3038.00,0.0237
3037.00,0.0235
3036.00,0.0234
3035.00,0.0233
3034.00,0.0232
3033.00,0.0231
3032.00,0.0230
3031.00,0.0228
3030.00,0.0227
3029.00,0.0227
3028.00,0.0226
3027.00,0.0225
3026.00,0.0224
3025.00,0.0223
3024.00,0.0222
3023.00,0.0221
3022.00,0.0220
3021.00,0.0219
3020.00,0.0218
3019.00,0.0218
3018.00,0.0217
3017.00,0.0216
3016.00,0.0216
3015.00,0.0215
3014.00,0.0214
3013.00,0.0213
3012.00,0.0213
3011.00,0.0212
3010.00,0.0211
3009.00,0.0210
3008.00,0.0210
3007.00,0.0209
3006.00,0.0208
3005.00,0.0208
3004.00,0.0207
3003.00,0.0206
3002.00,0.0206
3001.00,0.0206
3000.00,0.0205
2999.00,0.0205
2998.00,0.0205
2997.00,0.0205
2996.00,0.0205
2995.00,0.0204
2994.00,0.0204
2993.00,0.0204
2992.00,0.0203
2991.00,0.0203
2990.00,0.0203
2989.00,0.0203
2988.00,0.0203
2987.00,0.0203
2986.00,0.0203
2985.00,0.0203
2984.00,0.0203
2983.00,0.0204
2982.00,0.0204
2981.00,0.0204
2980.00,0.0204
2979.00,0.0205
2978.00,0.0205
2977.00,0.0206
2976.00,0.0206
2975.00,0.0207
2974.00,0.0207
2973.00,0.0207
2972.00,0.0207
2971.00,0.0207
2970.00,0.0207
2969.00,0.0208
2968.00,0.0208
2967.00,0.0208
2966.00,0.0208
2965.00,0.0209
2964.00,0.0209
2963.00,0.0209
2962.00,0.0209
2961.00,0.0209
2960.00,0.0210
2959.00,0.0210
2958.00,0.0210
2957.00,0.0209
2956.00,0.0209
2955.00,0.0209
2954.00,0.0208
2953.00,0.0208
2952.00,0.0208
2951.00,0.0207
2950.00,0.0207
2949.00,0.0207
2948.00,0.0208
2947.00,0.0208
2946.00,0.0208
2945.00,0.0208
2944.00,0.0208
2943.00,0.0208
2942.00,0.0208
2941.00,0.0208
2940.00,0.0208
2939.00,0.0209
2938.00,0.0210
2937.00,0.0211
2936.00,0.0211
2935.00,0.0212
2934.00,0.0212
2933.00,0.0213
2932.00,0.0214
2931.00,0.0215
2930.00,0.0216
2929.00,0.0217
2928.00,0.0218
2927.00,0.0219
2926.00,0.0220
2925.00,0.0220
2924.00,0.0221
2923.00,0.0221
2922.00,0.0221
2921.00,0.0221
2920.00,0.0221
2919.00,0.0220
2918.00,0.0219
2917.00,0.0218
2916.00,0.0217
2915.00,0.0215
2914.00,0.0213
2913.00,0.0211
2912.00,0.0208
2911.00,0.0206
2910.00,0.0205
2909.00,0.0203
2908.00,0.0201
2907.00,0.0200
2906.00,0.0199
2905.00,0.0198
2904.00,0.0197
2903.00,0.0196
2902.00,0.0194
2901.00,0.0193
2900.00,0.0192
2899.00,0.0191
2898.00,0.0190
2897.00,0.0189
2896.00,0.0188
2895.00,0.0187
2894.00,0.0185
2893.00,0.0184
2892.00,0.0183
2891.00,0.0182
2890.00,0.0181
2889.00,0.0181
2888.00,0.0180
2887.00,0.0178
2886.00,0.0177
2885.00,0.0176
2884.00,0.0175
2883.00,0.0174
2882.00,0.0173
2881.00,0.0173
2880.00,0.0172
2879.00,0.0171
2878.00,0.0171
2877.00,0.0171
2876.00,0.0170
2875.00,0.0170
2874.00,0.0169
2873.00,0.0168
2872.00,0.0167
2871.00,0.0167
2870.00,0.0166
2869.00,0.0166
2868.00,0.0165
2867.00,0.0164
2866.00,0.0163
2865.00,0.0162
2864.00,0.0162
2863.00,0.0161
2862.00,0.0161
2861.00,0.0161
2860.00,0.0161
2859.00,0.0161
2858.00,0.0162
2857.00,0.0162
2856.00,0.0163
2855.00,0.0163
2854.00,0.0164
2853.00,0.0164
2852.00,0.0164
2851.00,0.0164
2850.00,0.0162
2849.00,0.0160
2848.00,0.0158
2847.00,0.0155
2846.00,0.0153
2845.00,0.0150
2844.00,0.0148
2843.00,0.0146
2842.00,0.0144
2841.00,0.0143
2840.00,0.0141
2839.00,0.0140
2838.00,0.0139
2837.00,0.0138
2836.00,0.0138
2835.00,0.0137
2834.00,0.0137
2833.00,0.0136
2832.00,0.0135
2831.00,0.0134
2830.00,0.0133
2829.00,0.0132
2828.00,0.0132
2827.00,0.0131
2826.00,0.0131
2825.00,0.0130
2824.00,0.0130
2823.00,0.0130
2822.00,0.0129
2821.00,0.0129
2820.00,0.0129
2819.00,0.0128
2818.00,0.0128
2817.00,0.0127
2816.00,0.0127
2815.00,0.0126
2814.00,0.0126
2813.00,0.0125
2812.00,0.0125
2811.00,0.0125
2810.00,0.0125
2809.00,0.0125
2808.00,0.0124
2807.00,0.0124
2806.00,0.0123
2805.00,0.0123
2804.00,0.0122
2803.00,0.0122
2802.00,0.0121
2801.00,0.0121
2800.00,0.0120
2799.00,0.0121
2798.00,0.0121
2797.00,0.0121
2796.00,0.0120
2795.00,0.0120
2794.00,0.0120
2793.00,0.0119
2792.00,0.0119
2791.00,0.0119
2790.00,0.0119
2789.00,0.0118
2788.00,0.0118
2787.00,0.0117
2786.00,0.0116
2785.00,0.0116
2784.00,0.0116
2783.00,0.0116
2782.00,0.0115
2781.00,0.0115
2780.00,0.0115
2779.00,0.0115
2778.00,0.0115
2777.00,0.0115
2776.00,0.0115
2775.00,0.0115
2774.00,0.0114
2773.00,0.0114
2772.00,0.0114
2771.00,0.0113
2770.00,0.0113
2769.00,0.0113
2768.00,0.0113
2767.00,0.0113
2766.00,0.0112
2765.00,0.0112
2764.00,0.0112
2763.00,0.0112
2762.00,0.0112
2761.00,0.0111
2760.00,0.0111
2759.00,0.0111
2758.00,0.0111
2757.00,0.0111
2756.00,0.0110
2755.00,0.0110
2754.00,0.0110
2753.00,0.0109
2752.00,0.0109
2751.00,0.0110
2750.00,0.0110
2749.00,0.0110
2748.00,0.0109
2747.00,0.0109
2746.00,0.0109
2745.00,0.0108
2744.00,0.0108
2743.00,0.0107
2742.00,0.0107
2741.00,0.0107
2740.00,0.0107
2739.00,0.0107
2738.00,0.0108
2737.00,0.0107
2736.00,0.0107
2735.00,0.0107
2734.00,0.0107
2733.00,0.0107
2732.00,0.0107
2731.00,0.0107
2730.00,0.0107
2729.00,0.0107
2728.00,0.0107
2727.00,0.0107
2726.00,0.0106
2725.00,0.0106
2724.00,0.0106
2723.00,0.0106
2722.00,0.0105
2721.00,0.0105
2720.00,0.0105
2719.00,0.0105
2718.00,0.0105
2717.00,0.0104
2716.00,0.0104
2715.00,0.0104
2714.00,0.0104
2713.00,0.0104
2712.00,0.0104
2711.00,0.0104
2710.00,0.0104
2709.00,0.0103
2708.00,0.0103
2707.00,0.0103
2706.00,0.0103
2705.00,0.0103
2704.00,0.0103
2703.00,0.0102
2702.00,0.0102
2701.00,0.0102
2700.00,0.0103
2699.00,0.0103
2698.00,0.0103
2697.00,0.0103
2696.00,0.0102
2695.00,0.0101
2694.00,0.0101
2693.00,0.0101
2692.00,0.0101
2691.00,0.0101
2690.00,0.0101
2689.00,0.0100
2688.00,0.0100
2687.00,0.0100
2686.00,0.0100
2685.00,0.0100
2684.00,0.0101
2683.00,0.0101
2682.00,0.0101
2681.00,0.0101
2680.00,0.0101
2679.00,0.0100
2678.00,0.0100
2677.00,0.0100
2676.00,0.0100
2675.00,0.0100
2674.00,0.0100
2673.00,0.0099
2672.00,0.0099
2671.00,0.0099
2670.00,0.0098
2669.00,0.0099
2668.00,0.0099
2667.00,0.0099
2666.00,0.0099
2665.00,0.0100
2664.00,0.0100
2663.00,0.0101
2662.00,0.0102
2661.00,0.0103
2660.00,0.0103
2659.00,0.0104
2658.00,0.0104
2657.00,0.0104
2656.00,0.0104
2655.00,0.0104
2654.00,0.0104
2653.00,0.0104
2652.00,0.0104
2651.00,0.0103
2650.00,0.0103
2649.00,0.0103
2648.00,0.0103
2647.00,0.0103
2646.00,0.0103
2645.00,0.0103
2644.00,0.0103
2643.00,0.0102
2642.00,0.0102
2641.00,0.0102
2640.00,0.0101
2639.00,0.0101
2638.00,0.0101
2637.00,0.0101
2636.00,0.0101
2635.00,0.0101
2634.00,0.0100
2633.00,0.0100
2632.00,0.0100
2631.00,0.0099
2630.00,0.0099
2629.00,0.0099
2628.00,0.0098
2627.00,0.0098
2626.00,0.0097
2625.00,0.0097
2624.00,0.0097
2623.00,0.0096
2622.00,0.0096
2621.00,0.0095
2620.00,0.0095
2619.00,0.0094
2618.00,0.0094
2617.00,0.0094
2616.00,0.0094
2615.00,0.0094
2614.00,0.0094
2613.00,0.0094
2612.00,0.0093
2611.00,0.0093
2610.00,0.0093
2609.00,0.0093
2608.00,0.0093
2607.00,0.0092
2606.00,0.0091
2605.00,0.0091
2604.00,0.0091
2603.00,0.0091
2602.00,0.0091
2601.00,0.0090
2600.00,0.0090
2599.00,0.0089
2598.00,0.0089
2597.00,0.0088
2596.00,0.0088
2595.00,0.0088
2594.00,0.0088
2593.00,0.0088
2592.00,0.0088
2591.00,0.0088
2590.00,0.0088
2589.00,0.0087
2588.00,0.0087
2587.00,0.0087
2586.00,0.0087
2585.00,0.0087
2584.00,0.0087
2583.00,0.0087
2582.00,0.0086
2581.00,0.0086
2580.00,0.0086
2579.00,0.0085
2578.00,0.0085
2577.00,0.0085
2576.00,0.0085
2575.00,0.0084
2574.00,0.0084
2573.00,0.0084
2572.00,0.0084
2571.00,0.0084
2570.00,0.0084
2569.00,0.0084
2568.00,0.0083
2567.00,0.0083
2566.00,0.0083
2565.00,0.0083
2564.00,0.0083
2563.00,0.0083
2562.00,0.0083
2561.00,0.0083
2560.00,0.0083
2559.00,0.0083
2558.00,0.0082
2557.00,0.0081
2556.00,0.0081
2555.00,0.0081
2554.00,0.0081
2553.00,0.0081
2552.00,0.0082
2551.00,0.0082
2550.00,0.0082
2549.00,0.0081
2548.00,0.0081
2547.00,0.0081
2546.00,0.0081
2545.00,0.0081
2544.00,0.0081
2543.00,0.0081
2542.00,0.0080
2541.00,0.0080
2540.00,0.0079
2539.00,0.0079
2538.00,0.0079
2537.00,0.0079
2536.00,0.0079
2535.00,0.0080
2534.00,0.0080
2533.00,0.0080
2532.00,0.0079
2531.00,0.0079
2530.00,0.0078
2529.00,0.0078
2528.00,0.0078
2527.00,0.0077
2526.00,0.0077
2525.00,0.0077
2524.00,0.0077
2523.00,0.0077
2522.00,0.0077
2521.00,0.0077
2520.00,0.0077
2519.00,0.0078
2518.00,0.0078
2517.00,0.0079
2516.00,0.0079
2515.00,0.0079
2514.00,0.0079
2513.00,0.0078
2512.00,0.0077
2511.00,0.0077
2510.00,0.0077
2509.00,0.0078
2508.00,0.0078
2507.00,0.0078
2506.00,0.0078
2505.00,0.0078
2504.00,0.0078
2503.00,0.0079
2502.00,0.0079
2501.00,0.0079
2500.00,0.0079
2499.00,0.0079
2498.00,0.0079
2497.00,0.0080
2496.00,0.0080
2495.00,0.0080
2494.00,0.0080
2493.00,0.0079
2492.00,0.0078
2491.00,0.0077
2490.00,0.0077
2489.00,0.0076
2488.00,0.0075
2487.00,0.0075
2486.00,0.0075
2485.00,0.0075
2484.00,0.0075
2483.00,0.0075
2482.00,0.0075
2481.00,0.0075
2480.00,0.0076
2479.00,0.0076
2478.00,0.0077
2477.00,0.0077
2476.00,0.0077
2475.00,0.0077
2474.00,0.0077
2473.00,0.0076
2472.00,0.0076
2471.00,0.0076
2470.00,0.0075
2469.00,0.0075
2468.00,0.0075
2467.00,0.0075
2466.00,0.0075
2465.00,0.0075
2464.00,0.0076
2463.00,0.0077
2462.00,0.0077
2461.00,0.0078
2460.00,0.0078
2459.00,0.0078
2458.00,0.0079
2457.00,0.0079
2456.00,0.0079
2455.00,0.0079
2454.00,0.0079
2453.00,0.0079
2452.00,0.0079
2451.00,0.0079
2450.00,0.0079
2449.00,0.0079
2448.00,0.0078
2447.00,0.0078
2446.00,0.0078
2445.00,0.0077
2444.00,0.0076
2443.00,0.0076
2442.00,0.0076
2441.00,0.0076
2440.00,0.0077
2439.00,0.0077
2438.00,0.0077
2437.00,0.0077
2436.00,0.0076
2435.00,0.0076
2434.00,0.0075
2433.00,0.0075
2432.00,0.0075
2431.00,0.0074
2430.00,0.0075
2429.00,0.0075
2428.00,0.0076
2427.00,0.0076
2426.00,0.0076
2425.00,0.0075
2424.00,0.0075
2423.00,0.0074
2422.00,0.0074
2421.00,0.0074
2420.00,0.0075
2419.00,0.0075
2418.00,0.0075
2417.00,0.0075
2416.00,0.0075
2415.00,0.0075
2414.00,0.0074
2413.00,0.0074
2412.00,0.0074
2411.00,0.0074
2410.00,0.0075
2409.00,0.0075
2408.00,0.0074
2407.00,0.0074
2406.00,0.0073
2405.00,0.0073
2404.00,0.0072
2403.00,0.0072
2402.00,0.0072
2401.00,0.0072
2400.00,0.0072
2399.00,0.0072
2398.00,0.0071
2397.00,0.0071
2396.00,0.0072
2395.00,0.0072
2394.00,0.0073
2393.00,0.0074
2392.00,0.0074
2391.00,0.0074
2390.00,0.0073
2389.00,0.0073
2388.00,0.0072
2387.00,0.0072
2386.00,0.0072
2385.00,0.0072
2384.00,0.0073
2383.00,0.0073
2382.00,0.0073
2381.00,0.0073
2380.00,0.0072
2379.00,0.0072
2378.00,0.0072
2377.00,0.0072
2376.00,0.0073
2375.00,0.0074
2374.00,0.0075
2373.00,0.0075
2372.00,0.0076
2371.00,0.0076
2370.00,0.0076
2369.00,0.0077
2368.00,0.0077
2367.00,0.0077
2366.00,0.0077
2365.00,0.0078
2364.00,0.0078
2363.00,0.0079
2362.00,0.0080
2361.00,0.0082
2360.00,0.0083
2359.00,0.0083
2358.00,0.0083
2357.00,0.0083
2356.00,0.0082
2355.00,0.0082
2354.00,0.0082
2353.00,0.0081
2352.00,0.0081
2351.00,0.0083
2350.00,0.0086
2349.00,0.0089
2348.00,0.0091
2347.00,0.0091
2346.00,0.0090
2345.00,0.0088
2344.00,0.0087
2343.00,0.0088
2342.00,0.0089
2341.00,0.0090
2340.00,0.0091
2339.00,0.0091
2338.00,0.0091
2337.00,0.0091
2336.00,0.0091
2335.00,0.0091
2334.00,0.0091
2333.00,0.0090
2332.00,0.0089
2331.00,0.0088
2330.00,0.0089
2329.00,0.0090
2328.00,0.0093
2327.00,0.0099
2326.00,0.0106
2325.00,0.0112
2324.00,0.0116
2323.00,0.0115
2322.00,0.0112
2321.00,0.0109
2320.00,0.0106
2319.00,0.0104
2318.00,0.0104
2317.00,0.0103
2316.00,0.0103
2315.00,0.0103
2314.00,0.0102
2313.00,0.0101
2312.00,0.0101
2311.00,0.0100
2310.00,0.0100
2309.00,0.0099
2308.00,0.0099
2307.00,0.0099
2306.00,0.0098
2305.00,0.0098
2304.00,0.0098
2303.00,0.0098
2302.00,0.0098
2301.00,0.0098
2300.00,0.0099
2299.00,0.0099
2298.00,0.0099
2297.00,0.0098
2296.00,0.0099
2295.00,0.0099
2294.00,0.0101
2293.00,0.0103
2292.00,0.0105
2291.00,0.0106
2290.00,0.0108
2289.00,0.0109
2288.00,0.0110
2287.00,0.0111
2286.00,0.0111
2285.00,0.0111
2284.00,0.0110
2283.00,0.0109
2282.00,0.0108
2281.00,0.0108
2280.00,0.0107
2279.00,0.0106
2278.00,0.0105
2277.00,0.0104
2276.00,0.0103
2275.00,0.0101
2274.00,0.0100
2273.00,0.0099
2272.00,0.0099
2271.00,0.0098
2270.00,0.0098
2269.00,0.0098
2268.00,0.0097
2267.00,0.0096
2266.00,0.0095
2265.00,0.0094
2264.00,0.0095
2263.00,0.0096
2262.00,0.0098
2261.00,0.0099
2260.00,0.0100
2259.00,0.0100
2258.00,0.0100
2257.00,0.0099
2256.00,0.0098
2255.00,0.0096
2254.00,0.0095
2253.00,0.0093
2252.00,0.0092
2251.00,0.0091
2250.00,0.0090
2249.00,0.0090
2248.00,0.0091
2247.00,0.0092
2246.00,0.0093
2245.00,0.0095
2244.00,0.0096
2243.00,0.0096
2242.00,0.0095
2241.00,0.0095
2240.00,0.0095
2239.00,0.0096
2238.00,0.0096
2237.00,0.0097
2236.00,0.0098
2235.00,0.0099
2234.00,0.0099
2233.00,0.0098
2232.00,0.0096
2231.00,0.0093
2230.00,0.0091
2229.00,0.0090
2228.00,0.0091
2227.00,0.0092
2226.00,0.0092
2225.00,0.0092
2224.00,0.0092
2223.00,0.0092
2222.00,0.0092
2221.00,0.0093
2220.00,0.0094
2219.00,0.0093
2218.00,0.0092
2217.00,0.0091
2216.00,0.0090
2215.00,0.0088
2214.00,0.0087
2213.00,0.0087
2212.00,0.0089
2211.00,0.0091
2210.00,0.0092
2209.00,0.0091
2208.00,0.0090
2207.00,0.0090
2206.00,0.0091
2205.00,0.0093
2204.00,0.0095
2203.00,0.0096
2202.00,0.0095
2201.00,0.0095
2200.00,0.0095
2199.00,0.0095
2198.00,0.0096
2197.00,0.0097
2196.00,0.0098
2195.00,0.0098
2194.00,0.0095
2193.00,0.0093
2192.00,0.0093
2191.00,0.0095
2190.00,0.0098
2189.00,0.0099
2188.00,0.0097
2187.00,0.0095
2186.00,0.0093
2185.00,0.0093
2184.00,0.0094
2183.00,0.0093
2182.00,0.0090
2181.00,0.0088
2180.00,0.0088
2179.00,0.0090
2178.00,0.0092
2177.00,0.0093
2176.00,0.0090
2175.00,0.0087
2174.00,0.0086
2173.00,0.0087
2172.00,0.0089
2171.00,0.0090
2170.00,0.0092
2169.00,0.0096
2168.00,0.0100
2167.00,0.0105
2166.00,0.0108
2165.00,0.0110
2164.00,0.0112
2163.00,0.0115
2162.00,0.0115
2161.00,0.0108
2160.00,0.0090
2159.00,0.0066
2158.00,0.0045
2157.00,0.0035
2156.00,0.0036
2155.00,0.0041
2154.00,0.0047
2153.00,0.0052
2152.00,0.0055
2151.00,0.0057
2150.00,0.0059
2149.00,0.0060
2148.00,0.0061
2147.00,0.0062
2146.00,0.0063
2145.00,0.0064
2144.00,0.0064
2143.00,0.0064
2142.00,0.0065
2141.00,0.0067
2140.00,0.0068
2139.00,0.0068
2138.00,0.0066
2137.00,0.0064
2136.00,0.0062
2135.00,0.0060
2134.00,0.0059
2133.00,0.0060
2132.00,0.0064
2131.00,0.0067
2130.00,0.0071
2129.00,0.0074
2128.00,0.0076
2127.00,0.0079
2126.00,0.0081
2125.00,0.0084
2124.00,0.0086
2123.00,0.0087
2122.00,0.0088
2121.00,0.0090
2120.00,0.0091
2119.00,0.0093
2118.00,0.0095
2117.00,0.0098
2116.00,0.0101
2115.00,0.0104
2114.00,0.0105
2113.00,0.0106
2112.00,0.0106
2111.00,0.0106
2110.00,0.0106
2109.00,0.0105
2108.00,0.0104
2107.00,0.0104
2106.00,0.0104
2105.00,0.0104
2104.00,0.0104
2103.00,0.0103
2102.00,0.0103
2101.00,0.0103
2100.00,0.0103
2099.00,0.0104
2098.00,0.0103
2097.00,0.0102
2096.00,0.0101
2095.00,0.0099
2094.00,0.0098
2093.00,0.0098
2092.00,0.0100
2091.00,0.0101
2090.00,0.0102
2089.00,0.0103
2088.00,0.0103
2087.00,0.0104
2086.00,0.0104
2085.00,0.0105
2084.00,0.0105
2083.00,0.0106
2082.00,0.0106
2081.00,0.0107
2080.00,0.0108
2079.00,0.0108
2078.00,0.0107
2077.00,0.0106
2076.00,0.0105
2075.00,0.0104
2074.00,0.0103
2073.00,0.0102
2072.00,0.0101
2071.00,0.0099
2070.00,0.0098
2069.00,0.0098
2068.00,0.0098
2067.00,0.0098
2066.00,0.0097
2065.00,0.0097
2064.00,0.0098
2063.00,0.0099
2062.00,0.0099
2061.00,0.0099
2060.00,0.0098
2059.00,0.0096
2058.00,0.0095
2057.00,0.0094
2056.00,0.0094
2055.00,0.0094
2054.00,0.0096
2053.00,0.0102
2052.00,0.0109
2051.00,0.0112
2050.00,0.0111
2049.00,0.0108
2048.00,0.0104
2047.00,0.0101
2046.00,0.0099
2045.00,0.0097
2044.00,0.0096
2043.00,0.0096
2042.00,0.0097
2041.00,0.0098
2040.00,0.0098
2039.00,0.0096
2038.00,0.0093
2037.00,0.0091
2036.00,0.0092
2035.00,0.0092
2034.00,0.0090
2033.00,0.0085
2032.00,0.0080
2031.00,0.0075
2030.00,0.0071
2029.00,0.0069
2028.00,0.0069
2027.00,0.0071
2026.00,0.0073
2025.00,0.0075
2024.00,0.0076
2023.00,0.0078
2022.00,0.0081
2021.00,0.0083
2020.00,0.0082
2019.00,0.0078
2018.00,0.0073
2017.00,0.0068
2016.00,0.0067
2015.00,0.0068
2014.00,0.0071
2013.00,0.0074
2012.00,0.0077
2011.00,0.0078
2010.00,0.0078
2009.00,0.0076
2008.00,0.0072
2007.00,0.0065
2006.00,0.0059
2005.00,0.0057
2004.00,0.0059
2003.00,0.0063
2002.00,0.0066
2001.00,0.0069
2000.00,0.0071
1999.00,0.0074
1998.00,0.0077
1997.00,0.0079
1996.00,0.0080
1995.00,0.0080
1994.00,0.0078
1993.00,0.0077
1992.00,0.0078
1991.00,0.0080
1990.00,0.0082
1989.00,0.0083
1988.00,0.0082
1987.00,0.0081
1986.00,0.0081
1985.00,0.0084
1984.00,0.0087
1983.00,0.0091
1982.00,0.0096
1981.00,0.0100
1980.00,0.0103
1979.00,0.0098
1978.00,0.0087
1977.00,0.0076
1976.00,0.0068
1975.00,0.0064
1974.00,0.0060
1973.00,0.0057
1972.00,0.0055
1971.00,0.0055
1970.00,0.0057
1969.00,0.0060
1968.00,0.0062
1967.00,0.0061
1966.00,0.0058
1965.00,0.0056
1964.00,0.0056
1963.00,0.0057
1962.00,0.0057
1961.00,0.0057
1960.00,0.0055
1959.00,0.0052
1958.00,0.0051
1957.00,0.0053
1956.00,0.0056
1955.00,0.0060
1954.00,0.0062
1953.00,0.0062
1952.00,0.0063
1951.00,0.0064
1950.00,0.0065
1949.00,0.0067
1948.00,0.0068
1947.00,0.0068
1946.00,0.0067
1945.00,0.0067
1944.00,0.0067
1943.00,0.0068
1942.00,0.0068
1941.00,0.0068
1940.00,0.0067
1939.00,0.0066
1938.00,0.0064
1937.00,0.0063
1936.00,0.0064
1935.00,0.0065
1934.00,0.0067
1933.00,0.0069
1932.00,0.0070
1931.00,0.0069
1930.00,0.0068
1929.00,0.0067
1928.00,0.0067
1927.00,0.0067
1926.00,0.0069
1925.00,0.0071
1924.00,0.0073
1923.00,0.0073
1922.00,0.0073
1921.00,0.0073
1920.00,0.0074
1919.00,0.0075
1918.00,0.0075
1917.00,0.0075
1916.00,0.0075
1915.00,0.0074
1914.00,0.0074
1913.00,0.0074
1912.00,0.0075
1911.00,0.0076
1910.00,0.0077
1909.00,0.0078
1908.00,0.0078
1907.00,0.0078
1906.00,0.0077
1905.00,0.0076
1904.00,0.0075
1903.00,0.0074
1902.00,0.0073
1901.00,0.0074
1900.00,0.0074
1899.00,0.0075
1898.00,0.0075
1897.00,0.0075
1896.00,0.0076
1895.00,0.0075
1894.00,0.0075
1893.00,0.0075
1892.00,0.0075
1891.00,0.0075
1890.00,0.0075
1889.00,0.0075
1888.00,0.0075
1887.00,0.0075
1886.00,0.0074
1885.00,0.0074
1884.00,0.0074
1883.00,0.0074
1882.00,0.0075
1881.00,0.0075
1880.00,0.0076
1879.00,0.0076
1878.00,0.0075
1877.00,0.0075
1876.00,0.0075
1875.00,0.0075
1874.00,0.0075
1873.00,0.0075
1872.00,0.0076
1871.00,0.0076
1870.00,0.0075
1869.00,0.0075
1868.00,0.0074
1867.00,0.0075
1866.00,0.0076
1865.00,0.0076
1864.00,0.0076
1863.00,0.0076
1862.00,0.0076
1861.00,0.0077
1860.00,0.0078
1859.00,0.0078
1858.00,0.0078
1857.00,0.0077
1856.00,0.0077
1855.00,0.0077
1854.00,0.0077
1853.00,0.0077
1852.00,0.0078
1851.00,0.0078
1850.00,0.0078
1849.00,0.0077
1848.00,0.0078
1847.00,0.0079
1846.00,0.0079
1845.00,0.0079
1844.00,0.0078
1843.00,0.0078
1842.00,0.0078
1841.00,0.0078
1840.00,0.0078
1839.00,0.0079
1838.00,0.0078
1837.00,0.0079
1836.00,0.0079
1835.00,0.0080
1834.00,0.0081
1833.00,0.0082
1832.00,0.0082
1831.00,0.0082
1830.00,0.0082
1829.00,0.0082
1828.00,0.0083
1827.00,0.0084
1826.00,0.0083
1825.00,0.0083
1824.00,0.0084
1823.00,0.0084
1822.00,0.0084
1821.00,0.0084
1820.00,0.0083
1819.00,0.0082
1818.00,0.0080
1817.00,0.0079
1816.00,0.0079
1815.00,0.0080
1814.00,0.0082
1813.00,0.0083
1812.00,0.0085
1811.00,0.0086
1810.00,0.0087
1809.00,0.0088
1808.00,0.0088
1807.00,0.0089
1806.00,0.0089
1805.00,0.0090
1804.00,0.0091
1803.00,0.0091
1802.00,0.0092
1801.00,0.0092
1800.00,0.0092
1799.00,0.0093
1798.00,0.0094
1797.00,0.0095
1796.00,0.0096
1795.00,0.0097
1794.00,0.0097
1793.00,0.0097
1792.00,0.0096
1791.00,0.0095
1790.00,0.0095
1789.00,0.0096
1788.00,0.0097
1787.00,0.0098
1786.00,0.0098
1785.00,0.0098
1784.00,0.0099
1783.00,0.0099
1782.00,0.0099
1781.00,0.0100
1780.00,0.0100
1779.00,0.0100
1778.00,0.0100
1777.00,0.0100
1776.00,0.0101
1775.00,0.0103
1774.00,0.0104
1773.00,0.0105
1772.00,0.0105
1771.00,0.0105
1770.00,0.0106
1769.00,0.0106
1768.00,0.0107
1767.00,0.0108
1766.00,0.0108
1765.00,0.0109
1764.00,0.0110
1763.00,0.0111
1762.00,0.0111
1761.00,0.0112
1760.00,0.0113
1759.00,0.0114
1758.00,0.0115
1757.00,0.0116
1756.00,0.0117
1755.00,0.0118
1754.00,0.0121
1753.00,0.0122
1752.00,0.0124
1751.00,0.0124
1750.00,0.0125
1749.00,0.0127
1748.00,0.0129
1747.00,0.0131
1746.00,0.0132
1745.00,0.0133
1744.00,0.0135
1743.00,0.0136
1742.00,0.0137
1741.00,0.0138
1740.00,0.0138
1739.00,0.0139
1738.00,0.0140
1737.00,0.0142
1736.00,0.0144
1735.00,0.0146
1734.00,0.0147
1733.00,0.0148
1732.00,0.0149
1731.00,0.0150
1730.00,0.0152
1729.00,0.0153
1728.00,0.0155
1727.00,0.0157
1726.00,0.0159
1725.00,0.0161
1724.00,0.0162
1723.00,0.0164
1722.00,0.0166
1721.00,0.0168
1720.00,0.0171
1719.00,0.0174
1718.00,0.0178
1717.00,0.0181
1716.00,0.0185
1715.00,0.0187
1714.00,0.0189
1713.00,0.0191
1712.00,0.0194
1711.00,0.0197
1710.00,0.0199
1709.00,0.0202
1708.00,0.0206
1707.00,0.0210
1706.00,0.0214
1705.00,0.0219
1704.00,0.0224
1703.00,0.0228
1702.00,0.0231
1701.00,0.0234
1700.00,0.0240
1699.00,0.0248
1698.00,0.0256
1697.00,0.0262
1696.00,0.0268
1695.00,0.0274
1694.00,0.0280
1693.00,0.0285
1692.00,0.0291
1691.00,0.0297
1690.00,0.0303
1689.00,0.0311
1688.00,0.0318
1687.00,0.0326
1686.00,0.0332
1685.00,0.0341
1684.00,0.0353
1683.00,0.0364
1682.00,0.0373
1681.00,0.0381
1680.00,0.0389
1679.00,0.0396
1678.00,0.0404
1677.00,0.0411
1676.00,0.0421
1675.00,0.0432
1674.00,0.0443
1673.00,0.0452
1672.00,0.0461
1671.00,0.0469
1670.00,0.0480
1669.00,0.0492
1668.00,0.0504
1667.00,0.0514
1666.00,0.0522
1665.00,0.0530
1664.00,0.0539
1663.00,0.0550
1662.00,0.0561
1661.00,0.0572
1660.00,0.0582
1659.00,0.0591
1658.00,0.0599
1657.00,0.0606
1656.00,0.0613
1655.00,0.0620
1654.00,0.0628
1653.00,0.0642
1652.00,0.0655
1651.00,0.0663
1650.00,0.0667
1649.00,0.0671
1648.00,0.0677
1647.00,0.0685
1646.00,0.0693
1645.00,0.0698
1644.00,0.0702
1643.00,0.0704
1642.00,0.0705
1641.00,0.0706
1640.00,0.0708
1639.00,0.0709
1638.00,0.0710
1637.00,0.0710
1636.00,0.0711
1635.00,0.0711
1634.00,0.0709
1633.00,0.0706
1632.00,0.0703
1631.00,0.0698
1630.00,0.0693
1629.00,0.0687
1628.00,0.0681
1627.00,0.0674
1626.00,0.0668
1625.00,0.0660
1624.00,0.0652
1623.00,0.0642
1622.00,0.0632
1621.00,0.0624
1620.00,0.0616
1619.00,0.0608
1618.00,0.0599
1617.00,0.0586
1616.00,0.0573
1615.00,0.0561
1614.00,0.0550
1613.00,0.0541
1612.00,0.0531
1611.00,0.0521
1610.00,0.0511
1609.00,0.0501
1608.00,0.0491
1607.00,0.0482
1606.00,0.0473
1605.00,0.0464
1604.00,0.0455
1603.00,0.0446
1602.00,0.0438
1601.00,0.0430
1600.00,0.0422
1599.00,0.0415
1598.00,0.0408
1597.00,0.0402
1596.00,0.0395
1595.00,0.0389
1594.00,0.0383
1593.00,0.0378
1592.00,0.0372
1591.00,0.0367
1590.00,0.0363
1589.00,0.0358
1588.00,0.0353
1587.00,0.0349
1586.00,0.0345
1585.00,0.0342
1584.00,0.0338
1583.00,0.0335
1582.00,0.0332
1581.00,0.0330
1580.00,0.0328
1579.00,0.0327
1578.00,0.0326
1577.00,0.0323
1576.00,0.0319
1575.00,0.0315
1574.00,0.0312
1573.00,0.0310
1572.00,0.0308
1571.00,0.0306
1570.00,0.0303
1569.00,0.0301
1568.00,0.0298
1567.00,0.0296
1566.00,0.0295
1565.00,0.0294
1564.00,0.0293
1563.00,0.0293
1562.00,0.0294
1561.00,0.0293
1560.00,0.0290
1559.00,0.0288
1558.00,0.0286
1557.00,0.0284
1556.00,0.0284
1555.00,0.0283
1554.00,0.0281
1553.00,0.0279
1552.00,0.0278
1551.00,0.0276
1550.00,0.0275
1549.00,0.0274
1548.00,0.0273
1547.00,0.0273
1546.00,0.0273
1545.00,0.0273
1544.00,0.0273
1543.00,0.0273
1542.00,0.0272
1541.00,0.0271
1540.00,0.0267
1539.00,0.0263
1538.00,0.0260
1537.00,0.0258
1536.00,0.0257
1535.00,0.0255
1534.00,0.0252
1533.00,0.0250
1532.00,0.0248
1531.00,0.0246
1530.00,0.0245
1529.00,0.0244
1528.00,0.0243
1527.00,0.0241
1526.00,0.0240
1525.00,0.0240
1524.00,0.0240
1523.00,0.0240
1522.00,0.0239
1521.00,0.0238
1520.00,0.0236
1519.00,0.0234
1518.00,0.0233
1517.00,0.0232
1516.00,0.0230
1515.00,0.0229
1514.00,0.0229
1513.00,0.0229
1512.00,0.0228
1511.00,0.0229
1510.00,0.0229
1509.00,0.0230
1508.00,0.0230
1507.00,0.0229
1506.00,0.0226
1505.00,0.0224
1504.00,0.0223
1503.00,0.0222
1502.00,0.0222
1501.00,0.0222
1500.00,0.0222
1499.00,0.0223
1498.00,0.0223
1497.00,0.0223
1496.00,0.0222
1495.00,0.0221
1494.00,0.0222
1493.00,0.0223
1492.00,0.0223
1491.00,0.0224
1490.00,0.0225
1489.00,0.0226
1488.00,0.0227
1487.00,0.0228
1486.00,0.0229
1485.00,0.0231
1484.00,0.0233
1483.00,0.0234
1482.00,0.0236
1481.00,0.0239
1480.00,0.0241
1479.00,0.0244
1478.00,0.0246
1477.00,0.0248
1476.00,0.0251
1475.00,0.0254
1474.00,0.0256
1473.00,0.0259
1472.00,0.0261
1471.00,0.0262
1470.00,0.0263
1469.00,0.0264
1468.00,0.0265
1467.00,0.0265
1466.00,0.0266
1465.00,0.0268
1464.00,0.0269
1463.00,0.0270
1462.00,0.0271
1461.00,0.0271
1460.00,0.0272
1459.00,0.0273
1458.00,0.0275
1457.00,0.0277
1456.00,0.0279
1455.00,0.0280
1454.00,0.0280
1453.00,0.0281
1452.00,0.0281
1451.00,0.0280
1450.00,0.0279
1449.00,0.0279
1448.00,0.0279
1447.00,0.0280
1446.00,0.0281
1445.00,0.0282
1444.00,0.0283
1443.00,0.0284
1442.00,0.0285
1441.00,0.0287
1440.00,0.0288
1439.00,0.0289
1438.00,0.0290
1437.00,0.0292
1436.00,0.0293
1435.00,0.0295
1434.00,0.0297
1433.00,0.0299
1432.00,0.0300
1431.00,0.0300
1430.00,0.0301
1429.00,0.0302
1428.00,0.0304
1427.00,0.0305
1426.00,0.0305
1425.00,0.0307
1424.00,0.0308
1423.00,0.0309
1422.00,0.0310
1421.00,0.0310
1420.00,0.0311
1419.00,0.0311
1418.00,0.0312
1417.00,0.0313
1416.00,0.0313
1415.00,0.0313
1414.00,0.0313
1413.00,0.0313
1412.00,0.0313
1411.00,0.0313
1410.00,0.0313
1409.00,0.0313
1408.00,0.0314
1407.00,0.0314
1406.00,0.0314
1405.00,0.0314
1404.00,0.0314
1403.00,0.0314
1402.00,0.0313
1401.00,0.0312
1400.00,0.0311
1399.00,0.0311
1398.00,0.0310
1397.00,0.0310
1396.00,0.0309
1395.00,0.0309
1394.00,0.0308
1393.00,0.0308
1392.00,0.0308
1391.00,0.0309
1390.00,0.0311
1389.00,0.0313
1388.00,0.0316
1387.00,0.0320
1386.00,0.0324
1385.00,0.0328
1384.00,0.0332
1383.00,0.0336
1382.00,0.0340
1381.00,0.0343
1380.00,0.0346
1379.00,0.0349
1378.00,0.0351
1377.00,0.0352
1376.00,0.0353
1375.00,0.0353
1374.00,0.0354
1373.00,0.0354
1372.00,0.0354
1371.00,0.0353
1370.00,0.0352
1369.00,0.0350
1368.00,0.0348
1367.00,0.0346
1366.00,0.0344
1365.00,0.0343
1364.00,0.0341
1363.00,0.0341
1362.00,0.0341
1361.00,0.0340
1360.00,0.0340
1359.00,0.0340
1358.00,0.0340
1357.00,0.0339
1356.00,0.0339
1355.00,0.0338
1354.00,0.0338
1353.00,0.0337
1352.00,0.0335
1351.00,0.0333
1350.00,0.0331
1349.00,0.0328
1348.00,0.0325
1347.00,0.0322
1346.00,0.0320
1345.00,0.0317
1344.00,0.0315
1343.00,0.0313
1342.00,0.0312
1341.00,0.0311
1340.00,0.0310
1339.00,0.0310
1338.00,0.0309
1337.00,0.0309
1336.00,0.0308
1335.00,0.0307
1334.00,0.0306
1333.00,0.0305
1332.00,0.0305
1331.00,0.0304
1330.00,0.0304
1329.00,0.0304
1328.00,0.0305
1327.00,0.0305
1326.00,0.0306
1325.00,0.0307
1324.00,0.0308
1323.00,0.0309
1322.00,0.0310
1321.00,0.0311
1320.00,0.0312
1319.00,0.0313
1318.00,0.0314
1317.00,0.0315
1316.00,0.0316
1315.00,0.0317
1314.00,0.0318
1313.00,0.0319
1312.00,0.0320
1311.00,0.0321
1310.00,0.0322
1309.00,0.0323
1308.00,0.0324
1307.00,0.0325
1306.00,0.0327
1305.00,0.0329
1304.00,0.0332
1303.00,0.0334
1302.00,0.0337
1301.00,0.0340
1300.00,0.0344
1299.00,0.0348
1298.00,0.0353
1297.00,0.0359
1296.00,0.0365
1295.00,0.0372
1294.00,0.0379
1293.00,0.0387
1292.00,0.0395
1291.00,0.0404
1290.00,0.0414
1289.00,0.0424
1288.00,0.0434
1287.00,0.0445
1286.00,0.0456
1285.00,0.0468
1284.00,0.0481
1283.00,0.0493
1282.00,0.0507
1281.00,0.0521
1280.00,0.0535
1279.00,0.0550
1278.00,0.0565
1277.00,0.0580
1276.00,0.0595
1275.00,0.0611
1274.00,0.0627
1273.00,0.0643
1272.00,0.0660
1271.00,0.0675
1270.00,0.0690
1269.00,0.0704
1268.00,0.0717
1267.00,0.0730
1266.00,0.0742
1265.00,0.0754
1264.00,0.0764
1263.00,0.0774
1262.00,0.0783
1261.00,0.0792
1260.00,0.0799
1259.00,0.0806
1258.00,0.0813
1257.00,0.0819
1256.00,0.0824
1255.00,0.0828
1254.00,0.0832
1253.00,0.0836
1252.00,0.0839
1251.00,0.0842
1250.00,0.0845
1249.00,0.0847
1248.00,0.0849
1247.00,0.0851
1246.00,0.0853
1245.00,0.0856
1244.00,0.0859
1243.00,0.0863
1242.00,0.0866
1241.00,0.0870
1240.00,0.0875
1239.00,0.0879
1238.00,0.0884
1237.00,0.0889
1236.00,0.0894
1235.00,0.0898
1234.00,0.0901
1233.00,0.0905
1232.00,0.0908
1231.00,0.0911
1230.00,0.0913
1229.00,0.0914
1228.00,0.0914
1227.00,0.0914
1226.00,0.0913
1225.00,0.0911
1224.00,0.0909
1223.00,0.0905
1222.00,0.0901
1221.00,0.0896
1220.00,0.0891
1219.00,0.0885
1218.00,0.0877
1217.00,0.0869
1216.00,0.0860
1215.00,0.0851
1214.00,0.0840
1213.00,0.0830
1212.00,0.0819
1211.00,0.0807
1210.00,0.0795
1209.00,0.0782
1208.00,0.0770
1207.00,0.0757
1206.00,0.0744
1205.00,0.0731
1204.00,0.0718
1203.00,0.0706
1202.00,0.0695
1201.00,0.0684
1200.00,0.0675
1199.00,0.0668
1198.00,0.0664
1197.00,0.0661
1196.00,0.0660
1195.00,0.0659
1194.00,0.0659
1193.00,0.0658
1192.00,0.0656
1191.00,0.0653
1190.00,0.0649
1189.00,0.0644
1188.00,0.0639
1187.00,0.0633
1186.00,0.0628
1185.00,0.0623
1184.00,0.0618
1183.00,0.0615
1182.00,0.0613
1181.00,0.0613
1180.00,0.0613
1179.00,0.0615
1178.00,0.0619
1177.00,0.0623
1176.00,0.0628
1175.00,0.0635
1174.00,0.0642
1173.00,0.0649
1172.00,0.0659
1171.00,0.0669
1170.00,0.0680
1169.00,0.0693
1168.00,0.0707
1167.00,0.0721
1166.00,0.0737
1165.00,0.0752
1164.00,0.0766
1163.00,0.0779
1162.00,0.0790
1161.00,0.0799
1160.00,0.0807
1159.00,0.0814
1158.00,0.0818
1157.00,0.0819
1156.00,0.0819
1155.00,0.0818
1154.00,0.0815
1153.00,0.0811
1152.00,0.0805
1151.00,0.0798
1150.00,0.0791
1149.00,0.0783
1148.00,0.0775
1147.00,0.0766
1146.00,0.0758
1145.00,0.0749
1144.00,0.0742
1143.00,0.0737
1142.00,0.0733
1141.00,0.0730
1140.00,0.0730
1139.00,0.0732
1138.00,0.0737
1137.00,0.0745
1136.00,0.0756
1135.00,0.0769
1134.00,0.0786
1133.00,0.0804
1132.00,0.0822
1131.00,0.0840
1130.00,0.0858
1129.00,0.0873
1128.00,0.0885
1127.00,0.0893
1126.00,0.0898
1125.00,0.0901
1124.00,0.0901
1123.00,0.0899
1122.00,0.0896
1121.00,0.0893
1120.00,0.0891
1119.00,0.0888
1118.00,0.0886
1117.00,0.0884
1116.00,0.0883
1115.00,0.0882
1114.00,0.0882
1113.00,0.0882
1112.00,0.0882
1111.00,0.0881
1110.00,0.0880
1109.00,0.0880
1108.00,0.0881
1107.00,0.0883
1106.00,0.0887
1105.00,0.0893
1104.00,0.0902
1103.00,0.0911
1102.00,0.0921
1101.00,0.0932
1100.00,0.0945
1099.00,0.0958
1098.00,0.0971
1097.00,0.0984
1096.00,0.0995
1095.00,0.1005
1094.00,0.1013
1093.00,0.1020
1092.00,0.1028
1091.00,0.1035
1090.00,0.1043
1089.00,0.1051
1088.00,0.1061
1087.00,0.1071
1086.00,0.1083
1085.00,0.1097
1084.00,0.1112
1083.00,0.1129
1082.00,0.1148
1081.00,0.1168
1080.00,0.1189
1079.00,0.1212
1078.00,0.1235
1077.00,0.1259
1076.00,0.1283
1075.00,0.1305
1074.00,0.1328
1073.00,0.1350
1072.00,0.1370
1071.00,0.1389
1070.00,0.1405
1069.00,0.1417
1068.00,0.1426
1067.00,0.1430
1066.00,0.1430
1065.00,0.1424
1064.00,0.1414
1063.00,0.1399
1062.00,0.1382
1061.00,0.1365
1060.00,0.1349
1059.00,0.1336
1058.00,0.1327
1057.00,0.1322
1056.00,0.1319
1055.00,0.1319
1054.00,0.1320
1053.00,0.1324
1052.00,0.1328
1051.00,0.1334
1050.00,0.1341
1049.00,0.1351
1048.00,0.1363
1047.00,0.1377
1046.00,0.1392
1045.00,0.1407
1044.00,0.1422
1043.00,0.1434
1042.00,0.1443
1041.00,0.1448
1040.00,0.1449
1039.00,0.1447
1038.00,0.1441
1037.00,0.1435
1036.00,0.1428
1035.00,0.1424
1034.00,0.1421
1033.00,0.1421
1032.00,0.1423
1031.00,0.1425
1030.00,0.1426
1029.00,0.1424
1028.00,0.1419
1027.00,0.1410
1026.00,0.1395
1025.00,0.1376
1024.00,0.1353
1023.00,0.1327
1022.00,0.1299
1021.00,0.1270
1020.00,0.1241
1019.00,0.1212
1018.00,0.1185
1017.00,0.1159
1016.00,0.1136
1015.00,0.1115
1014.00,0.1097
1013.00,0.1083
1012.00,0.1071
1011.00,0.1062
1010.00,0.1056
1009.00,0.1053
1008.00,0.1051
1007.00,0.1050
1006.00,0.1050
1005.00,0.1047
1004.00,0.1042
1003.00,0.1033
1002.00,0.1019
1001.00,0.1002
1000.00,0.0980
999.00,0.0957
998.00,0.0934
997.00,0.0912
996.00,0.0893
995.00,0.0877
994.00,0.0864
993.00,0.0855
992.00,0.0847
991.00,0.0839
990.00,0.0831
989.00,0.0822
988.00,0.0813
987.00,0.0803
986.00,0.0792
985.00,0.0781
984.00,0.0769
983.00,0.0757
982.00,0.0748
981.00,0.0740
980.00,0.0735
979.00,0.0731
978.00,0.0729
977.00,0.0730
976.00,0.0731
975.00,0.0734
974.00,0.0738
973.00,0.0741
972.00,0.0744
971.00,0.0746
970.00,0.0745
969.00,0.0740
968.00,0.0730
967.00,0.0715
966.00,0.0696
965.00,0.0675
964.00,0.0653
963.00,0.0633
962.00,0.0616
961.00,0.0601
960.00,0.0589
959.00,0.0580
958.00,0.0573
957.00,0.0569
956.00,0.0567
955.00,0.0567
954.00,0.0569
953.00,0.0572
952.00,0.0577
951.00,0.0583
950.00,0.0590
949.00,0.0598
948.00,0.0608
947.00,0.0618
946.00,0.0631
945.00,0.0645
944.00,0.0660
943.00,0.0677
942.00,0.0698
941.00,0.0722
940.00,0.0750
939.00,0.0781
938.00,0.0816
937.00,0.0851
936.00,0.0886
935.00,0.0918
934.00,0.0948
933.00,0.0975
932.00,0.0999
931.00,0.1018
930.00,0.1034
929.00,0.1047
928.00,0.1058
927.00,0.1066
926.00,0.1072
925.00,0.1075
924.00,0.1076
923.00,0.1075
922.00,0.1072
921.00,0.1068
920.00,0.1063
919.00,0.1057
918.00,0.1050
917.00,0.1043
916.00,0.1034
915.00,0.1023
914.00,0.1011
913.00,0.0999
912.00,0.0987
911.00,0.0974
910.00,0.0961
909.00,0.0947
908.00,0.0933
907.00,0.0921
906.00,0.0910
905.00,0.0900
904.00,0.0892
903.00,0.0884
902.00,0.0877
901.00,0.0872
900.00,0.0866
899.00,0.0861
898.00,0.0857
897.00,0.0855
896.00,0.0853
895.00,0.0851
894.00,0.0848
893.00,0.0846
892.00,0.0843
891.00,0.0840
890.00,0.0836
889.00,0.0831
888.00,0.0823
887.00,0.0813
886.00,0.0801
885.00,0.0786
884.00,0.0770
883.00,0.0753
882.00,0.0737
881.00,0.0723
880.00,0.0712
879.00,0.0703
878.00,0.0699
877.00,0.0699
876.00,0.0701
875.00,0.0704
874.00,0.0708
873.00,0.0709
872.00,0.0709
871.00,0.0706
870.00,0.0703
869.00,0.0700
868.00,0.0697
867.00,0.0696
866.00,0.0696
865.00,0.0699
864.00,0.0703
863.00,0.0709
862.00,0.0717
861.00,0.0727
860.00,0.0740
859.00,0.0754
858.00,0.0771
857.00,0.0791
856.00,0.0812
855.00,0.0834
854.00,0.0857
853.00,0.0880
852.00,0.0903
851.00,0.0925
850.00,0.0946
849.00,0.0964
848.00,0.0978
847.00,0.0988
846.00,0.0993
845.00,0.0993
844.00,0.0988
843.00,0.0978
842.00,0.0965
841.00,0.0949
840.00,0.0929
839.00,0.0909
838.00,0.0888
837.00,0.0869
836.00,0.0850
835.00,0.0833
834.00,0.0819
833.00,0.0806
832.00,0.0794
831.00,0.0784
830.00,0.0775
829.00,0.0767
828.00,0.0760
827.00,0.0754
826.00,0.0749
825.00,0.0745
824.00,0.0742
823.00,0.0741
822.00,0.0740
821.00,0.0739
820.00,0.0737
819.00,0.0737
818.00,0.0737
817.00,0.0739
816.00,0.0742
815.00,0.0746
814.00,0.0750
813.00,0.0755
812.00,0.0760
811.00,0.0766
810.00,0.0773
809.00,0.0781
808.00,0.0789
807.00,0.0796
806.00,0.0803
805.00,0.0809
804.00,0.0814
803.00,0.0819
802.00,0.0822
801.00,0.0826
800.00,0.0829
799.00,0.0831
798.00,0.0832
797.00,0.0831
796.00,0.0828
795.00,0.0825
794.00,0.0822
793.00,0.0820
792.00,0.0819
791.00,0.0818
790.00,0.0818
789.00,0.0818
788.00,0.0818
787.00,0.0818
786.00,0.0819
785.00,0.0822
784.00,0.0825
783.00,0.0830
782.00,0.0835
781.00,0.0842
780.00,0.0848
779.00,0.0856
778.00,0.0866
777.00,0.0876
776.00,0.0885
775.00,0.0892
774.00,0.0898
773.00,0.0902
772.00,0.0904
771.00,0.0903
770.00,0.0900
769.00,0.0898
768.00,0.0895
767.00,0.0894
766.00,0.0895
765.00,0.0896
764.00,0.0898
763.00,0.0899
762.00,0.0899
761.00,0.0901
760.00,0.0903
759.00,0.0907
758.00,0.0912
757.00,0.0918
756.00,0.0925
755.00,0.0932
754.00,0.0942
753.00,0.0952
752.00,0.0965
751.00,0.0979
750.00,0.0995
749.00,0.1012
748.00,0.1028
747.00,0.1044
746.00,0.1059
745.00,0.1073
744.00,0.1085
743.00,0.1095
742.00,0.1105
741.00,0.1114
740.00,0.1123
739.00,0.1132
738.00,0.1141
737.00,0.1149
736.00,0.1155
735.00,0.1160
734.00,0.1164
733.00,0.1168
732.00,0.1172
731.00,0.1176
730.00,0.1181
729.00,0.1186
728.00,0.1192
727.00,0.1198
726.00,0.1205
725.00,0.1210
724.00,0.1212
723.00,0.1213
722.00,0.1214
721.00,0.1214
720.00,0.1214
719.00,0.1213
718.00,0.1213
717.00,0.1213
716.00,0.1215
715.00,0.1220
714.00,0.1228
713.00,0.1237
712.00,0.1247
711.00,0.1259
710.00,0.1271
709.00,0.1285
708.00,0.1298
707.00,0.1312
706.00,0.1324
705.00,0.1335
704.00,0.1343
703.00,0.1350
702.00,0.1354
701.00,0.1357
700.00,0.1356
699.00,0.1353
698.00,0.1348
697.00,0.1342
696.00,0.1335
695.00,0.1328
694.00,0.1320
693.00,0.1312
692.00,0.1303
691.00,0.1295
690.00,0.1288
689.00,0.1281
688.00,0.1275
687.00,0.1270
686.00,0.1268
685.00,0.1267
684.00,0.1265
683.00,0.1263
682.00,0.1261
681.00,0.1259
680.00,0.1259
679.00,0.1260
678.00,0.1263
677.00,0.1266
676.00,0.1271
675.00,0.1276
674.00,0.1281
673.00,0.1285
672.00,0.1287
671.00,0.1288
670.00,0.1288
669.00,0.1292
668.00,0.1301
667.00,0.1311
666.00,0.1315
665.00,0.1316
664.00,0.1315
663.00,0.1316
662.00,0.1318
661.00,0.1321
660.00,0.1323
659.00,0.1325
658.00,0.1327
657.00,0.1328
656.00,0.1328
655.00,0.1330
654.00,0.1333
653.00,0.1337
652.00,0.1341
651.00,0.1343
650.00,0.1343
649.00,0.1344
648.00,0.1346
647.00,0.1347
646.00,0.1348
645.00,0.1350
644.00,0.1353
643.00,0.1357
642.00,0.1363
641.00,0.1369
640.00,0.1374
639.00,0.1380
638.00,0.1386
637.00,0.1394
636.00,0.1403
635.00,0.1411
634.00,0.1419
633.00,0.1427
632.00,0.1435
631.00,0.1444
630.00,0.1457
629.00,0.1473
628.00,0.1491
627.00,0.1510
626.00,0.1529
625.00,0.1546
624.00,0.1563
623.00,0.1579
622.00,0.1595
621.00,0.1610
620.00,0.1623
619.00,0.1635
618.00,0.1645
617.00,0.1656
616.00,0.1665
615.00,0.1671
614.00,0.1676
613.00,0.1679
612.00,0.1684
611.00,0.1690
610.00,0.1697
609.00,0.1705
608.00,0.1712
607.00,0.1718
606.00,0.1722
605.00,0.1726
604.00,0.1729
603.00,0.1731
602.00,0.1731
601.00,0.1730
600.00,0.1729
599.00,0.1730
598.00,0.1733
597.00,0.1737
596.00,0.1741
595.00,0.1746
594.00,0.1752
593.00,0.1760
592.00,0.1767
591.00,0.1775
590.00,0.1783
589.00,0.1794
588.00,0.1807
587.00,0.1822
586.00,0.1836
585.00,0.1848
584.00,0.1858
583.00,0.1867
582.00,0.1878
581.00,0.1890
580.00,0.1904
579.00,0.1917
578.00,0.1928
577.00,0.1938
576.00,0.1946
575.00,0.1953
574.00,0.1959
573.00,0.1964
572.00,0.1966
571.00,0.1967
570.00,0.1968
569.00,0.1970
568.00,0.1974
567.00,0.1977
566.00,0.1978
565.00,0.1980
564.00,0.1983
563.00,0.1988
562.00,0.1995
561.00,0.2000
560.00,0.2004
559.00,0.2005
558.00,0.2005
557.00,0.2003
556.00,0.2001
555.00,0.2000
554.00,0.2000
553.00,0.2004
552.00,0.2008
551.00,0.2013
550.00,0.2014
549.00,0.2014
548.00,0.2012
547.00,0.2012
546.00,0.2014
545.00,0.2019
544.00,0.2024
543.00,0.2029
542.00,0.2033
541.00,0.2034
540.00,0.2033
539.00,0.2029
538.00,0.2026
537.00,0.2023
536.00,0.2019
535.00,0.2014
534.00,0.2007
533.00,0.2000
532.00,0.1995
531.00,0.1993
530.00,0.1993
529.00,0.1994
528.00,0.1993
527.00,0.1990
526.00,0.1987
525.00,0.1986
524.00,0.1987
523.00,0.1989
522.00,0.1992
521.00,0.1996
520.00,0.2000
519.00,0.2004
518.00,0.2006
517.00,0.2007
516.00,0.2008
515.00,0.2009
514.00,0.2008
513.00,0.2004
512.00,0.1998
511.00,0.1991
510.00,0.1985
509.00,0.1980
508.00,0.1978
507.00,0.1982
506.00,0.1988
505.00,0.1992
504.00,0.1994
503.00,0.1996
502.00,0.2000
501.00,0.2004
500.00,0.2006
499.00,0.2006
498.00,0.2006
497.00,0.2008
496.00,0.2009
495.00,0.2011
494.00,0.2011
493.00,0.2010
492.00,0.2009
491.00,0.2012
490.00,0.2018
489.00,0.2024
488.00,0.2027
487.00,0.2029
486.00,0.2031
485.00,0.2034
484.00,0.2036
483.00,0.2036
482.00,0.2036
481.00,0.2037
480.00,0.2038
479.00,0.2041
478.00,0.2043
477.00,0.2040
476.00,0.2035
475.00,0.2030
474.00,0.2029
473.00,0.2030
472.00,0.2032
471.00,0.2032
470.00,0.2034
469.00,0.2038
468.00,0.2046
467.00,0.2057
466.00,0.2063
465.00,0.2064
464.00,0.2060
463.00,0.2058
462.00,0.2061
461.00,0.2066
460.00,0.2070
459.00,0.2076
458.00,0.2087
457.00,0.2090
456.00,0.2091
455.00,0.2093
454.00,0.2097
453.00,0.2099
452.00,0.2095
451.00,0.2087
450.00,0.2080
