Created as New Dataset,Sample 001 By Administrator Date Monday, June 09 2025
cm-1,A
4000.00,0.0055
3999.00,0.0055
3998.00,0.0055
3997.00,0.0056
3996.00,0.0056
3995.00,0.0056
3994.00,0.0056
3993.00,0.0055
3992.00,0.0055
3991.00,0.0055
3990.00,0.0055
3989.00,0.0055
3988.00,0.0055
3987.00,0.0055
3986.00,0.0055
3985.00,0.0055
3984.00,0.0055
3983.00,0.0055
3982.00,0.0055
3981.00,0.0056
3980.00,0.0056
3979.00,0.0056
3978.00,0.0055
3977.00,0.0055
3976.00,0.0055
3975.00,0.0055
3974.00,0.0056
3973.00,0.0056
3972.00,0.0056
3971.00,0.0056
3970.00,0.0056
3969.00,0.0056
3968.00,0.0056
3967.00,0.0056
3966.00,0.0056
3965.00,0.0056
3964.00,0.0056
3963.00,0.0056
3962.00,0.0056
3961.00,0.0056
3960.00,0.0056
3959.00,0.0056
3958.00,0.0056
3957.00,0.0056
3956.00,0.0056
3955.00,0.0056
3954.00,0.0056
3953.00,0.0056
3952.00,0.0057
3951.00,0.0057
3950.00,0.0057
3949.00,0.0057
3948.00,0.0057
3947.00,0.0057
3946.00,0.0057
3945.00,0.0057
3944.00,0.0057
3943.00,0.0057
3942.00,0.0056
3941.00,0.0056
3940.00,0.0056
3939.00,0.0056
3938.00,0.0057
3937.00,0.0057
3936.00,0.0057
3935.00,0.0057
3934.00,0.0057
3933.00,0.0057
3932.00,0.0056
3931.00,0.0056
3930.00,0.0056
3929.00,0.0056
3928.00,0.0056
3927.00,0.0056
3926.00,0.0056
3925.00,0.0056
3924.00,0.0056
3923.00,0.0057
3922.00,0.0057
3921.00,0.0057
3920.00,0.0057
3919.00,0.0057
3918.00,0.0057
3917.00,0.0056
3916.00,0.0056
3915.00,0.0056
3914.00,0.0056
3913.00,0.0056
3912.00,0.0055
3911.00,0.0055
3910.00,0.0055
3909.00,0.0055
3908.00,0.0056
3907.00,0.0057
3906.00,0.0057
3905.00,0.0058
3904.00,0.0058
3903.00,0.0058
3902.00,0.0058
3901.00,0.0057
3900.00,0.0056
3899.00,0.0056
3898.00,0.0055
3897.00,0.0055
3896.00,0.0056
3895.00,0.0056
3894.00,0.0056
3893.00,0.0056
3892.00,0.0056
3891.00,0.0056
3890.00,0.0056
3889.00,0.0057
3888.00,0.0057
3887.00,0.0057
3886.00,0.0058
3885.00,0.0058
3884.00,0.0058
3883.00,0.0058
3882.00,0.0058
3881.00,0.0057
3880.00,0.0057
3879.00,0.0056
3878.00,0.0056
3877.00,0.0056
3876.00,0.0056
3875.00,0.0056
3874.00,0.0056
3873.00,0.0057
3872.00,0.0057
3871.00,0.0058
3870.00,0.0058
3869.00,0.0058
3868.00,0.0058
3867.00,0.0058
3866.00,0.0058
3865.00,0.0057
3864.00,0.0056
3863.00,0.0056
3862.00,0.0056
3861.00,0.0056
3860.00,0.0056
3859.00,0.0056
3858.00,0.0057
3857.00,0.0057
3856.00,0.0058
3855.00,0.0058
3854.00,0.0058
3853.00,0.0058
3852.00,0.0057
3851.00,0.0056
3850.00,0.0056
3849.00,0.0056
3848.00,0.0056
3847.00,0.0057
3846.00,0.0057
3845.00,0.0057
3844.00,0.0057
3843.00,0.0057
3842.00,0.0058
3841.00,0.0058
3840.00,0.0058
3839.00,0.0059
3838.00,0.0059
3837.00,0.0059
3836.00,0.0059
3835.00,0.0059
3834.00,0.0058
3833.00,0.0058
3832.00,0.0058
3831.00,0.0057
3830.00,0.0057
3829.00,0.0056
3828.00,0.0056
3827.00,0.0056
3826.00,0.0057
3825.00,0.0058
3824.00,0.0059
3823.00,0.0059
3822.00,0.0059
3821.00,0.0059
3820.00,0.0059
3819.00,0.0059
3818.00,0.0059
3817.00,0.0058
3816.00,0.0058
3815.00,0.0057
3814.00,0.0057
3813.00,0.0056
3812.00,0.0056
3811.00,0.0057
3810.00,0.0057
3809.00,0.0058
3808.00,0.0058
3807.00,0.0058
3806.00,0.0058
3805.00,0.0059
3804.00,0.0059
3803.00,0.0059
3802.00,0.0058
3801.00,0.0058
3800.00,0.0058
3799.00,0.0058
3798.00,0.0058
3797.00,0.0058
3796.00,0.0058
3795.00,0.0058
3794.00,0.0057
3793.00,0.0057
3792.00,0.0057
3791.00,0.0057
3790.00,0.0057
3789.00,0.0058
3788.00,0.0058
3787.00,0.0059
3786.00,0.0059
3785.00,0.0059
3784.00,0.0059
3783.00,0.0059
3782.00,0.0059
3781.00,0.0059
3780.00,0.0059
3779.00,0.0059
3778.00,0.0059
3777.00,0.0059
3776.00,0.0060
3775.00,0.0060
3774.00,0.0060
3773.00,0.0060
3772.00,0.0061
3771.00,0.0061
3770.00,0.0061
3769.00,0.0062
3768.00,0.0062
3767.00,0.0062
3766.00,0.0062
3765.00,0.0062
3764.00,0.0063
3763.00,0.0063
3762.00,0.0063
3761.00,0.0063
3760.00,0.0064
3759.00,0.0064
3758.00,0.0064
3757.00,0.0065
3756.00,0.0065
3755.00,0.0066
3754.00,0.0066
3753.00,0.0067
3752.00,0.0067
3751.00,0.0067
3750.00,0.0068
3749.00,0.0068
3748.00,0.0069
3747.00,0.0069
3746.00,0.0069
3745.00,0.0068
3744.00,0.0068
3743.00,0.0068
3742.00,0.0068
3741.00,0.0069
3740.00,0.0069
3739.00,0.0069
3738.00,0.0069
3737.00,0.0069
3736.00,0.0069
3735.00,0.0070
3734.00,0.0070
3733.00,0.0070
3732.00,0.0070
3731.00,0.0069
3730.00,0.0069
3729.00,0.0069
3728.00,0.0070
3727.00,0.0070
3726.00,0.0070
3725.00,0.0070
3724.00,0.0071
3723.00,0.0071
3722.00,0.0072
3721.00,0.0072
3720.00,0.0073
3719.00,0.0073
3718.00,0.0073
3717.00,0.0074
3716.00,0.0074
3715.00,0.0074
3714.00,0.0075
3713.00,0.0075
3712.00,0.0076
3711.00,0.0077
3710.00,0.0078
3709.00,0.0079
3708.00,0.0080
3707.00,0.0080
3706.00,0.0081
3705.00,0.0082
3704.00,0.0083
3703.00,0.0084
3702.00,0.0085
3701.00,0.0085
3700.00,0.0086
3699.00,0.0087
3698.00,0.0088
3697.00,0.0089
3696.00,0.0090
3695.00,0.0091
3694.00,0.0092
3693.00,0.0093
3692.00,0.0095
3691.00,0.0096
3690.00,0.0098
3689.00,0.0100
3688.00,0.0102
3687.00,0.0104
3686.00,0.0106
3685.00,0.0107
3684.00,0.0109
3683.00,0.0111
3682.00,0.0113
3681.00,0.0115
3680.00,0.0117
3679.00,0.0120
3678.00,0.0122
3677.00,0.0125
3676.00,0.0128
3675.00,0.0131
3674.00,0.0135
3673.00,0.0138
3672.00,0.0141
3671.00,0.0144
3670.00,0.0147
3669.00,0.0151
3668.00,0.0154
3667.00,0.0157
3666.00,0.0160
3665.00,0.0163
3664.00,0.0166
3663.00,0.0170
3662.00,0.0174
3661.00,0.0178
3660.00,0.0182
3659.00,0.0187
3658.00,0.0192
3657.00,0.0197
3656.00,0.0203
3655.00,0.0209
3654.00,0.0214
3653.00,0.0218
3652.00,0.0221
3651.00,0.0226
3650.00,0.0232
3649.00,0.0240
3648.00,0.0248
3647.00,0.0256
3646.00,0.0263
3645.00,0.0269
3644.00,0.0274
3643.00,0.0279
3642.00,0.0284
3641.00,0.0289
3640.00,0.0295
3639.00,0.0301
3638.00,0.0308
3637.00,0.0314
3636.00,0.0320
3635.00,0.0326
3634.00,0.0333
3633.00,0.0339
3632.00,0.0344
3631.00,0.0350
3630.00,0.0358
3629.00,0.0368
3628.00,0.0380
3627.00,0.0391
3626.00,0.0399
3625.00,0.0406
3624.00,0.0412
3623.00,0.0417
3622.00,0.0422
3621.00,0.0428
3620.00,0.0436
3619.00,0.0445
3618.00,0.0454
3617.00,0.0463
3616.00,0.0471
3615.00,0.0478
3614.00,0.0485
3613.00,0.0492
3612.00,0.0499
3611.00,0.0507
3610.00,0.0514
3609.00,0.0523
3608.00,0.0531
3607.00,0.0540
3606.00,0.0548
3605.00,0.0555
3604.00,0.0562
3603.00,0.0568
3602.00,0.0575
3601.00,0.0582
3600.00,0.0589
3599.00,0.0597
3598.00,0.0605
3597.00,0.0612
3596.00,0.0620
3595.00,0.0629
3594.00,0.0637
3593.00,0.0646
3592.00,0.0653
3591.00,0.0660
3590.00,0.0666
3589.00,0.0673
3588.00,0.0682
3587.00,0.0692
3586.00,0.0703
3585.00,0.0712
3584.00,0.0720
3583.00,0.0727
3582.00,0.0733
3581.00,0.0739
3580.00,0.0745
3579.00,0.0752
3578.00,0.0760
3577.00,0.0768
3576.00,0.0776
3575.00,0.0784
3574.00,0.0793
3573.00,0.0800
3572.00,0.0807
3571.00,0.0812
3570.00,0.0817
3569.00,0.0823
3568.00,0.0831
3567.00,0.0843
3566.00,0.0855
3565.00,0.0867
3564.00,0.0877
3563.00,0.0884
3562.00,0.0891
3561.00,0.0897
3560.00,0.0904
3559.00,0.0911
3558.00,0.0918
3557.00,0.0925
3556.00,0.0931
3555.00,0.0937
3554.00,0.0944
3553.00,0.0951
3552.00,0.0960
3551.00,0.0969
3550.00,0.0976
3549.00,0.0984
3548.00,0.0991
3547.00,0.0998
3546.00,0.1007
3545.00,0.1017
3544.00,0.1026
3543.00,0.1034
3542.00,0.1041
3541.00,0.1047
3540.00,0.1053
3539.00,0.1060
3538.00,0.1066
3537.00,0.1074
3536.00,0.1081
3535.00,0.1089
3534.00,0.1096
3533.00,0.1102
3532.00,0.1109
3531.00,0.1115
3530.00,0.1122
3529.00,0.1130
3528.00,0.1138
3527.00,0.1147
3526.00,0.1155
3525.00,0.1162
3524.00,0.1170
3523.00,0.1177
3522.00,0.1184
3521.00,0.1190
3520.00,0.1197
3519.00,0.1203
3518.00,0.1210
3517.00,0.1218
3516.00,0.1225
3515.00,0.1232
3514.00,0.1239
3513.00,0.1245
3512.00,0.1251
3511.00,0.1257
3510.00,0.1263
3509.00,0.1270
3508.00,0.1277
3507.00,0.1285
3506.00,0.1292
3505.00,0.1299
3504.00,0.1306
3503.00,0.1314
3502.00,0.1322
3501.00,0.1330
3500.00,0.1338
3499.00,0.1345
3498.00,0.1351
3497.00,0.1357
3496.00,0.1363
3495.00,0.1370
3494.00,0.1377
3493.00,0.1384
3492.00,0.1391
3491.00,0.1397
3490.00,0.1404
3489.00,0.1411
3488.00,0.1419
3487.00,0.1425
3486.00,0.1432
3485.00,0.1438
3484.00,0.1444
3483.00,0.1451
3482.00,0.1459
3481.00,0.1467
3480.00,0.1475
3479.00,0.1482
3478.00,0.1488
3477.00,0.1494
3476.00,0.1500
3475.00,0.1506
3474.00,0.1513
3473.00,0.1520
3472.00,0.1527
3471.00,0.1535
3470.00,0.1542
3469.00,0.1549
3468.00,0.1556
3467.00,0.1562
3466.00,0.1568
3465.00,0.1574
3464.00,0.1579
3463.00,0.1586
3462.00,0.1593
3461.00,0.1601
3460.00,0.1607
3459.00,0.1614
3458.00,0.1619
3457.00,0.1624
3456.00,0.1630
3455.00,0.1636
3454.00,0.1643
3453.00,0.1650
3452.00,0.1656
3451.00,0.1662
3450.00,0.1668
3449.00,0.1673
3448.00,0.1680
3447.00,0.1687
3446.00,0.1695
3445.00,0.1702
3444.00,0.1709
3443.00,0.1715
3442.00,0.1721
3441.00,0.1727
3440.00,0.1734
3439.00,0.1741
3438.00,0.1748
3437.00,0.1754
3436.00,0.1760
3435.00,0.1765
3434.00,0.1770
3433.00,0.1776
3432.00,0.1781
3431.00,0.1787
3430.00,0.1794
3429.00,0.1799
3428.00,0.1805
3427.00,0.1810
3426.00,0.1815
3425.00,0.1821
3424.00,0.1826
3423.00,0.1832
3422.00,0.1838
3421.00,0.1844
3420.00,0.1850
3419.00,0.1856
3418.00,0.1861
3417.00,0.1867
3416.00,0.1872
3415.00,0.1877
3414.00,0.1883
3413.00,0.1888
3412.00,0.1893
3411.00,0.1898
3410.00,0.1903
3409.00,0.1907
3408.00,0.1911
3407.00,0.1915
3406.00,0.1919
3405.00,0.1924
3404.00,0.1930
3403.00,0.1936
3402.00,0.1941
3401.00,0.1945
3400.00,0.1948
3399.00,0.1951
3398.00,0.1954
3397.00,0.1958
3396.00,0.1961
3395.00,0.1965
3394.00,0.1969
3393.00,0.1973
3392.00,0.1976
3391.00,0.1980
3390.00,0.1982
3389.00,0.1984
3388.00,0.1986
3387.00,0.1988
3386.00,0.1990
3385.00,0.1993
3384.00,0.1996
3383.00,0.1999
3382.00,0.2001
3381.00,0.2003
3380.00,0.2005
3379.00,0.2007
3378.00,0.2009
3377.00,0.2011
3376.00,0.2012
3375.00,0.2014
3374.00,0.2016
3373.00,0.2018
3372.00,0.2020
3371.00,0.2022
3370.00,0.2023
3369.00,0.2025
3368.00,0.2026
3367.00,0.2026
3366.00,0.2027
3365.00,0.2028
3364.00,0.2029
3363.00,0.2030
3362.00,0.2030
3361.00,0.2030
3360.00,0.2030
3359.00,0.2030
3358.00,0.2030
3357.00,0.2030
3356.00,0.2030
3355.00,0.2031
3354.00,0.2031
3353.00,0.2032
3352.00,0.2032
3351.00,0.2032
3350.00,0.2032
3349.00,0.2032
3348.00,0.2031
3347.00,0.2030
3346.00,0.2030
3345.00,0.2030
3344.00,0.2030
3343.00,0.2030
3342.00,0.2029
3341.00,0.2029
3340.00,0.2029
3339.00,0.2029
3338.00,0.2028
3337.00,0.2027
3336.00,0.2026
3335.00,0.2026
3334.00,0.2025
3333.00,0.2025
3332.00,0.2025
3331.00,0.2024
3330.00,0.2022
3329.00,0.2022
3328.00,0.2021
3327.00,0.2020
3326.00,0.2020
3325.00,0.2019
3324.00,0.2018
3323.00,0.2018
3322.00,0.2017
3321.00,0.2016
3320.00,0.2015
3319.00,0.2014
3318.00,0.2012
3317.00,0.2011
3316.00,0.2010
3315.00,0.2009
3314.00,0.2008
3313.00,0.2008
3312.00,0.2007
3311.00,0.2006
3310.00,0.2005
3309.00,0.2004
3308.00,0.2003
3307.00,0.2001
3306.00,0.1999
3305.00,0.1998
3304.00,0.1996
3303.00,0.1994
3302.00,0.1992
3301.00,0.1990
3300.00,0.1988
3299.00,0.1986
3298.00,0.1985
3297.00,0.1983
3296.00,0.1981
3295.00,0.1978
3294.00,0.1976
3293.00,0.1974
3292.00,0.1972
3291.00,0.1970
3290.00,0.1968
3289.00,0.1967
3288.00,0.1965
3287.00,0.1962
3286.00,0.1959
3285.00,0.1956
3284.00,0.1954
3283.00,0.1951
3282.00,0.1948
3281.00,0.1946
3280.00,0.1943
3279.00,0.1940
3278.00,0.1937
3277.00,0.1933
3276.00,0.1930
3275.00,0.1926
3274.00,0.1923
3273.00,0.1919
3272.00,0.1916
3271.00,0.1912
3270.00,0.1908
3269.00,0.1904
3268.00,0.1901
3267.00,0.1897
3266.00,0.1893
3265.00,0.1888
3264.00,0.1884
3263.00,0.1880
3262.00,0.1876
3261.00,0.1871
3260.00,0.1866
3259.00,0.1861
3258.00,0.1856
3257.00,0.1852
3256.00,0.1847
3255.00,0.1842
3254.00,0.1838
3253.00,0.1834
3252.00,0.1829
3251.00,0.1824
3250.00,0.1819
3249.00,0.1813
3248.00,0.1808
3247.00,0.1802
3246.00,0.1797
3245.00,0.1792
3244.00,0.1787
3243.00,0.1783
3242.00,0.1777
3241.00,0.1772
3240.00,0.1766
3239.00,0.1761
3238.00,0.1755
3237.00,0.1750
3236.00,0.1745
3235.00,0.1739
3234.00,0.1734
3233.00,0.1729
3232.00,0.1724
3231.00,0.1718
3230.00,0.1712
3229.00,0.1705
3228.00,0.1699
3227.00,0.1693
3226.00,0.1687
3225.00,0.1681
3224.00,0.1675
3223.00,0.1669
3222.00,0.1663
3221.00,0.1656
3220.00,0.1650
3219.00,0.1644
3218.00,0.1638
3217.00,0.1633
3216.00,0.1627
3215.00,0.1620
3214.00,0.1614
3213.00,0.1608
3212.00,0.1601
3211.00,0.1594
3210.00,0.1587
3209.00,0.1581
3208.00,0.1574
3207.00,0.1568
3206.00,0.1561
3205.00,0.1554
3204.00,0.1546
3203.00,0.1539
3202.00,0.1531
3201.00,0.1524
3200.00,0.1517
3199.00,0.1511
3198.00,0.1504
3197.00,0.1497
3196.00,0.1491
3195.00,0.1483
3194.00,0.1476
3193.00,0.1468
3192.00,0.1460
3191.00,0.1453
3190.00,0.1445
3189.00,0.1438
3188.00,0.1430
3187.00,0.1423
3186.00,0.1416
3185.00,0.1409
3184.00,0.1401
3183.00,0.1394
3182.00,0.1386
3181.00,0.1378
3180.00,0.1370
3179.00,0.1363
3178.00,0.1355
3177.00,0.1348
3176.00,0.1340
3175.00,0.1332
3174.00,0.1324
3173.00,0.1316
3172.00,0.1309
3171.00,0.1301
3170.00,0.1294
3169.00,0.1287
3168.00,0.1280
3167.00,0.1272
3166.00,0.1264
3165.00,0.1256
3164.00,0.1248
3163.00,0.1241
3162.00,0.1234
3161.00,0.1227
3160.00,0.1219
3159.00,0.1211
3158.00,0.1204
3157.00,0.1196
3156.00,0.1189
3155.00,0.1181
3154.00,0.1174
3153.00,0.1166
3152.00,0.1159
3151.00,0.1152
3150.00,0.1144
3149.00,0.1137
3148.00,0.1130
3147.00,0.1122
3146.00,0.1115
3145.00,0.1108
3144.00,0.1101
3143.00,0.1095
3142.00,0.1088
3141.00,0.1081
3140.00,0.1074
3139.00,0.1067
3138.00,0.1060
3137.00,0.1053
3136.00,0.1046
3135.00,0.1040
3134.00,0.1033
3133.00,0.1027
3132.00,0.1020
3131.00,0.1013
3130.00,0.1006
3129.00,0.1000
3128.00,0.0993
3127.00,0.0987
3126.00,0.0982
3125.00,0.0976
3124.00,0.0970
3123.00,0.0964
3122.00,0.0958
3121.00,0.0952
3120.00,0.0946
3119.00,0.0940
3118.00,0.0934
3117.00,0.0929
3116.00,0.0923
3115.00,0.0917
3114.00,0.0912
3113.00,0.0906
3112.00,0.0901
3111.00,0.0895
3110.00,0.0890
3109.00,0.0885
3108.00,0.0880
3107.00,0.0875
3106.00,0.0870
3105.00,0.0865
3104.00,0.0860
3103.00,0.0855
3102.00,0.0850
3101.00,0.0845
3100.00,0.0841
3099.00,0.0836
3098.00,0.0831
3097.00,0.0827
3096.00,0.0823
3095.00,0.0819
3094.00,0.0814
3093.00,0.0810
3092.00,0.0806
3091.00,0.0802
3090.00,0.0798
3089.00,0.0793
3088.00,0.0789
3087.00,0.0784
3086.00,0.0780
3085.00,0.0776
3084.00,0.0771
3083.00,0.0767
3082.00,0.0762
3081.00,0.0758
3080.00,0.0754
3079.00,0.0750
3078.00,0.0746
3077.00,0.0743
3076.00,0.0739
3075.00,0.0736
3074.00,0.0731
3073.00,0.0727
3072.00,0.0723
3071.00,0.0719
3070.00,0.0715
3069.00,0.0711
3068.00,0.0707
3067.00,0.0703
3066.00,0.0699
3065.00,0.0695
3064.00,0.0691
3063.00,0.0687
3062.00,0.0683
3061.00,0.0679
3060.00,0.0674
3059.00,0.0670
3058.00,0.0666
3057.00,0.0661
3056.00,0.0657
3055.00,0.0653
3054.00,0.0649
3053.00,0.0645
3052.00,0.0640
3051.00,0.0636
3050.00,0.0631
3049.00,0.0628
3048.00,0.0624
3047.00,0.0620
3046.00,0.0616
3045.00,0.0612
3044.00,0.0608
3043.00,0.0604
3042.00,0.0600
3041.00,0.0596
3040.00,0.0592
3039.00,0.0588
3038.00,0.0584
3037.00,0.0581
3036.00,0.0578
3035.00,0.0574
3034.00,0.0571
3033.00,0.0567
3032.00,0.0564
3031.00,0.0560
3030.00,0.0557
3029.00,0.0554
3028.00,0.0550
3027.00,0.0547
3026.00,0.0544
3025.00,0.0540
3024.00,0.0537
3023.00,0.0534
3022.00,0.0531
3021.00,0.0528
3020.00,0.0525
3019.00,0.0522
3018.00,0.0520
3017.00,0.0517
3016.00,0.0514
3015.00,0.0511
3014.00,0.0509
3013.00,0.0507
3012.00,0.0504
3011.00,0.0502
3010.00,0.0500
3009.00,0.0497
3008.00,0.0495
3007.00,0.0493
3006.00,0.0490
3005.00,0.0488
3004.00,0.0487
3003.00,0.0485
3002.00,0.0484
3001.00,0.0482
3000.00,0.0481
2999.00,0.0480
2998.00,0.0479
2997.00,0.0478
2996.00,0.0478
2995.00,0.0477
2994.00,0.0477
2993.00,0.0477
2992.00,0.0477
2991.00,0.0477
2990.00,0.0477
2989.00,0.0477
2988.00,0.0477
2987.00,0.0477
2986.00,0.0478
2985.00,0.0479
2984.00,0.0480
2983.00,0.0481
2982.00,0.0482
2981.00,0.0484
2980.00,0.0485
2979.00,0.0486
2978.00,0.0488
2977.00,0.0489
2976.00,0.0490
2975.00,0.0492
2974.00,0.0494
2973.00,0.0496
2972.00,0.0498
2971.00,0.0500
2970.00,0.0502
2969.00,0.0504
2968.00,0.0506
2967.00,0.0507
2966.00,0.0508
2965.00,0.0509
2964.00,0.0510
2963.00,0.0510
2962.00,0.0511
2961.00,0.0512
2960.00,0.0512
2959.00,0.0511
2958.00,0.0510
2957.00,0.0509
2956.00,0.0507
2955.00,0.0506
2954.00,0.0504
2953.00,0.0503
2952.00,0.0502
2951.00,0.0500
2950.00,0.0499
2949.00,0.0498
2948.00,0.0497
2947.00,0.0496
2946.00,0.0496
2945.00,0.0495
2944.00,0.0495
2943.00,0.0495
2942.00,0.0496
2941.00,0.0496
2940.00,0.0497
2939.00,0.0497
2938.00,0.0497
2937.00,0.0498
2936.00,0.0498
2935.00,0.0499
2934.00,0.0499
2933.00,0.0499
2932.00,0.0499
2931.00,0.0498
2930.00,0.0497
2929.00,0.0497
2928.00,0.0497
2927.00,0.0496
2926.00,0.0496
2925.00,0.0495
2924.00,0.0494
2923.00,0.0493
2922.00,0.0491
2921.00,0.0489
2920.00,0.0486
2919.00,0.0482
2918.00,0.0479
2917.00,0.0475
2916.00,0.0472
2915.00,0.0468
2914.00,0.0464
2913.00,0.0459
2912.00,0.0455
2911.00,0.0452
2910.00,0.0448
2909.00,0.0445
2908.00,0.0442
2907.00,0.0440
2906.00,0.0437
2905.00,0.0434
2904.00,0.0432
2903.00,0.0428
2902.00,0.0425
2901.00,0.0422
2900.00,0.0420
2899.00,0.0417
2898.00,0.0414
2897.00,0.0411
2896.00,0.0408
2895.00,0.0405
2894.00,0.0403
2893.00,0.0400
2892.00,0.0397
2891.00,0.0395
2890.00,0.0392
2889.00,0.0390
2888.00,0.0387
2887.00,0.0385
2886.00,0.0382
2885.00,0.0380
2884.00,0.0378
2883.00,0.0376
2882.00,0.0374
2881.00,0.0373
2880.00,0.0371
2879.00,0.0370
2878.00,0.0368
2877.00,0.0366
2876.00,0.0364
2875.00,0.0362
2874.00,0.0360
2873.00,0.0358
2872.00,0.0356
2871.00,0.0353
2870.00,0.0350
2869.00,0.0347
2868.00,0.0344
2867.00,0.0341
2866.00,0.0338
2865.00,0.0336
2864.00,0.0334
2863.00,0.0332
2862.00,0.0330
2861.00,0.0328
2860.00,0.0327
2859.00,0.0326
2858.00,0.0326
2857.00,0.0325
2856.00,0.0325
2855.00,0.0324
2854.00,0.0323
2853.00,0.0321
2852.00,0.0319
2851.00,0.0316
2850.00,0.0313
2849.00,0.0309
2848.00,0.0305
2847.00,0.0301
2846.00,0.0296
2845.00,0.0292
2844.00,0.0288
2843.00,0.0284
2842.00,0.0280
2841.00,0.0277
2840.00,0.0274
2839.00,0.0272
2838.00,0.0269
2837.00,0.0267
2836.00,0.0265
2835.00,0.0263
2834.00,0.0261
2833.00,0.0259
2832.00,0.0257
2831.00,0.0256
2830.00,0.0254
2829.00,0.0253
2828.00,0.0252
2827.00,0.0251
2826.00,0.0249
2825.00,0.0248
2824.00,0.0246
2823.00,0.0245
2822.00,0.0244
2821.00,0.0242
2820.00,0.0241
2819.00,0.0239
2818.00,0.0238
2817.00,0.0236
2816.00,0.0235
2815.00,0.0234
2814.00,0.0232
2813.00,0.0231
2812.00,0.0230
2811.00,0.0229
2810.00,0.0228
2809.00,0.0226
2808.00,0.0225
2807.00,0.0224
2806.00,0.0223
2805.00,0.0222
2804.00,0.0221
2803.00,0.0221
2802.00,0.0220
2801.00,0.0219
2800.00,0.0218
2799.00,0.0217
2798.00,0.0216
2797.00,0.0214
2796.00,0.0213
2795.00,0.0212
2794.00,0.0211
2793.00,0.0210
2792.00,0.0209
2791.00,0.0207
2790.00,0.0206
2789.00,0.0205
2788.00,0.0205
2787.00,0.0204
2786.00,0.0204
2785.00,0.0204
2784.00,0.0203
2783.00,0.0202
2782.00,0.0200
2781.00,0.0199
2780.00,0.0198
2779.00,0.0197
2778.00,0.0196
2777.00,0.0196
2776.00,0.0195
2775.00,0.0195
2774.00,0.0194
2773.00,0.0193
2772.00,0.0192
2771.00,0.0191
2770.00,0.0190
2769.00,0.0189
2768.00,0.0189
2767.00,0.0188
2766.00,0.0188
2765.00,0.0187
2764.00,0.0186
2763.00,0.0185
2762.00,0.0185
2761.00,0.0184
2760.00,0.0183
2759.00,0.0183
2758.00,0.0182
2757.00,0.0181
2756.00,0.0180
2755.00,0.0180
2754.00,0.0180
2753.00,0.0179
2752.00,0.0179
2751.00,0.0178
2750.00,0.0177
2749.00,0.0177
2748.00,0.0176
2747.00,0.0176
2746.00,0.0175
2745.00,0.0174
2744.00,0.0174
2743.00,0.0173
2742.00,0.0173
2741.00,0.0172
2740.00,0.0172
2739.00,0.0171
2738.00,0.0171
2737.00,0.0170
2736.00,0.0170
2735.00,0.0169
2734.00,0.0169
2733.00,0.0169
2732.00,0.0168
2731.00,0.0168
2730.00,0.0167
2729.00,0.0166
2728.00,0.0166
2727.00,0.0165
2726.00,0.0164
2725.00,0.0164
2724.00,0.0163
2723.00,0.0163
2722.00,0.0162
2721.00,0.0162
2720.00,0.0161
2719.00,0.0161
2718.00,0.0160
2717.00,0.0160
2716.00,0.0159
2715.00,0.0158
2714.00,0.0158
2713.00,0.0158
2712.00,0.0157
2711.00,0.0157
2710.00,0.0156
2709.00,0.0156
2708.00,0.0156
2707.00,0.0155
2706.00,0.0155
2705.00,0.0154
2704.00,0.0154
2703.00,0.0153
2702.00,0.0153
2701.00,0.0152
2700.00,0.0152
2699.00,0.0152
2698.00,0.0151
2697.00,0.0151
2696.00,0.0150
2695.00,0.0150
2694.00,0.0149
2693.00,0.0149
2692.00,0.0149
2691.00,0.0148
2690.00,0.0148
2689.00,0.0147
2688.00,0.0147
2687.00,0.0147
2686.00,0.0147
2685.00,0.0147
2684.00,0.0146
2683.00,0.0146
2682.00,0.0145
2681.00,0.0145
2680.00,0.0144
2679.00,0.0144
2678.00,0.0143
2677.00,0.0143
2676.00,0.0143
2675.00,0.0142
2674.00,0.0142
2673.00,0.0142
2672.00,0.0141
2671.00,0.0141
2670.00,0.0140
2669.00,0.0140
2668.00,0.0140
2667.00,0.0140
2666.00,0.0140
2665.00,0.0140
2664.00,0.0141
2663.00,0.0141
2662.00,0.0141
2661.00,0.0141
2660.00,0.0141
2659.00,0.0141
2658.00,0.0141
2657.00,0.0141
2656.00,0.0140
2655.00,0.0140
2654.00,0.0139
2653.00,0.0139
2652.00,0.0138
2651.00,0.0138
2650.00,0.0137
2649.00,0.0137
2648.00,0.0137
2647.00,0.0137
2646.00,0.0136
2645.00,0.0136
2644.00,0.0136
2643.00,0.0135
2642.00,0.0135
2641.00,0.0134
2640.00,0.0133
2639.00,0.0133
2638.00,0.0132
2637.00,0.0131
2636.00,0.0131
2635.00,0.0130
2634.00,0.0130
2633.00,0.0130
2632.00,0.0130
2631.00,0.0129
2630.00,0.0129
2629.00,0.0128
2628.00,0.0128
2627.00,0.0127
2626.00,0.0126
2625.00,0.0125
2624.00,0.0125
2623.00,0.0124
2622.00,0.0124
2621.00,0.0124
2620.00,0.0123
2619.00,0.0123
2618.00,0.0122
2617.00,0.0122
2616.00,0.0122
2615.00,0.0122
2614.00,0.0121
2613.00,0.0120
2612.00,0.0120
2611.00,0.0119
2610.00,0.0118
2609.00,0.0118
2608.00,0.0117
2607.00,0.0117
2606.00,0.0116
2605.00,0.0116
2604.00,0.0115
2603.00,0.0115
2602.00,0.0115
2601.00,0.0114
2600.00,0.0114
2599.00,0.0114
2598.00,0.0114
2597.00,0.0113
2596.00,0.0113
2595.00,0.0113
2594.00,0.0112
2593.00,0.0111
2592.00,0.0110
2591.00,0.0110
2590.00,0.0110
2589.00,0.0111
2588.00,0.0111
2587.00,0.0111
2586.00,0.0111
2585.00,0.0111
2584.00,0.0110
2583.00,0.0110
2582.00,0.0109
2581.00,0.0108
2580.00,0.0108
2579.00,0.0107
2578.00,0.0107
2577.00,0.0107
2576.00,0.0107
2575.00,0.0106
2574.00,0.0106
2573.00,0.0106
2572.00,0.0106
2571.00,0.0105
2570.00,0.0105
2569.00,0.0105
2568.00,0.0104
2567.00,0.0104
2566.00,0.0104
2565.00,0.0104
2564.00,0.0104
2563.00,0.0104
2562.00,0.0104
2561.00,0.0104
2560.00,0.0104
2559.00,0.0103
2558.00,0.0103
2557.00,0.0103
2556.00,0.0103
2555.00,0.0103
2554.00,0.0102
2553.00,0.0102
2552.00,0.0102
2551.00,0.0101
2550.00,0.0101
2549.00,0.0101
2548.00,0.0101
2547.00,0.0101
2546.00,0.0101
2545.00,0.0101
2544.00,0.0101
2543.00,0.0101
2542.00,0.0100
2541.00,0.0100
2540.00,0.0100
2539.00,0.0100
2538.00,0.0100
2537.00,0.0100
2536.00,0.0100
2535.00,0.0100
2534.00,0.0099
2533.00,0.0099
2532.00,0.0099
2531.00,0.0099
2530.00,0.0098
2529.00,0.0098
2528.00,0.0097
2527.00,0.0097
2526.00,0.0097
2525.00,0.0097
2524.00,0.0098
2523.00,0.0098
2522.00,0.0098
2521.00,0.0098
2520.00,0.0098
2519.00,0.0097
2518.00,0.0097
2517.00,0.0097
2516.00,0.0097
2515.00,0.0097
2514.00,0.0097
2513.00,0.0097
2512.00,0.0097
2511.00,0.0097
2510.00,0.0096
2509.00,0.0096
2508.00,0.0096
2507.00,0.0096
2506.00,0.0096
2505.00,0.0096
2504.00,0.0096
2503.00,0.0096
2502.00,0.0096
2501.00,0.0096
2500.00,0.0096
2499.00,0.0095
2498.00,0.0095
2497.00,0.0094
2496.00,0.0094
2495.00,0.0095
2494.00,0.0095
2493.00,0.0095
2492.00,0.0095
2491.00,0.0095
2490.00,0.0095
2489.00,0.0095
2488.00,0.0095
2487.00,0.0095
2486.00,0.0095
2485.00,0.0094
2484.00,0.0094
2483.00,0.0094
2482.00,0.0094
2481.00,0.0094
2480.00,0.0094
2479.00,0.0094
2478.00,0.0093
2477.00,0.0093
2476.00,0.0093
2475.00,0.0093
2474.00,0.0093
2473.00,0.0093
2472.00,0.0093
2471.00,0.0093
2470.00,0.0093
2469.00,0.0092
2468.00,0.0092
2467.00,0.0092
2466.00,0.0093
2465.00,0.0093
2464.00,0.0094
2463.00,0.0094
2462.00,0.0094
2461.00,0.0094
2460.00,0.0094
2459.00,0.0094
2458.00,0.0095
2457.00,0.0095
2456.00,0.0096
2455.00,0.0096
2454.00,0.0096
2453.00,0.0095
2452.00,0.0094
2451.00,0.0093
2450.00,0.0093
2449.00,0.0093
2448.00,0.0093
2447.00,0.0093
2446.00,0.0093
2445.00,0.0093
2444.00,0.0093
2443.00,0.0092
2442.00,0.0092
2441.00,0.0092
2440.00,0.0092
2439.00,0.0092
2438.00,0.0091
2437.00,0.0091
2436.00,0.0091
2435.00,0.0090
2434.00,0.0090
2433.00,0.0089
2432.00,0.0090
2431.00,0.0090
2430.00,0.0090
2429.00,0.0090
2428.00,0.0090
2427.00,0.0090
2426.00,0.0090
2425.00,0.0089
2424.00,0.0089
2423.00,0.0089
2422.00,0.0089
2421.00,0.0089
2420.00,0.0090
2419.00,0.0090
2418.00,0.0091
2417.00,0.0091
2416.00,0.0091
2415.00,0.0092
2414.00,0.0091
2413.00,0.0091
2412.00,0.0091
2411.00,0.0091
2410.00,0.0091
2409.00,0.0092
2408.00,0.0092
2407.00,0.0091
2406.00,0.0090
2405.00,0.0089
2404.00,0.0089
2403.00,0.0089
2402.00,0.0089
2401.00,0.0090
2400.00,0.0090
2399.00,0.0091
2398.00,0.0091
2397.00,0.0091
2396.00,0.0091
2395.00,0.0091
2394.00,0.0091
2393.00,0.0091
2392.00,0.0091
2391.00,0.0091
2390.00,0.0091
2389.00,0.0090
2388.00,0.0090
2387.00,0.0091
2386.00,0.0091
2385.00,0.0092
2384.00,0.0092
2383.00,0.0091
2382.00,0.0091
2381.00,0.0090
2380.00,0.0090
2379.00,0.0089
2378.00,0.0089
2377.00,0.0089
2376.00,0.0090
2375.00,0.0091
2374.00,0.0091
2373.00,0.0092
2372.00,0.0093
2371.00,0.0093
2370.00,0.0094
2369.00,0.0094
2368.00,0.0094
2367.00,0.0094
2366.00,0.0094
2365.00,0.0095
2364.00,0.0095
2363.00,0.0095
2362.00,0.0096
2361.00,0.0097
2360.00,0.0098
2359.00,0.0100
2358.00,0.0100
2357.00,0.0101
2356.00,0.0101
2355.00,0.0100
2354.00,0.0099
2353.00,0.0099
2352.00,0.0099
2351.00,0.0099
2350.00,0.0100
2349.00,0.0100
2348.00,0.0100
2347.00,0.0099
2346.00,0.0100
2345.00,0.0101
2344.00,0.0103
2343.00,0.0104
2342.00,0.0105
2341.00,0.0105
2340.00,0.0105
2339.00,0.0106
2338.00,0.0106
2337.00,0.0106
2336.00,0.0106
2335.00,0.0106
2334.00,0.0106
2333.00,0.0106
2332.00,0.0106
2331.00,0.0106
2330.00,0.0106
2329.00,0.0108
2328.00,0.0111
2327.00,0.0115
2326.00,0.0119
2325.00,0.0123
2324.00,0.0126
2323.00,0.0126
2322.00,0.0124
2321.00,0.0122
2320.00,0.0120
2319.00,0.0119
2318.00,0.0118
2317.00,0.0118
2316.00,0.0117
2315.00,0.0116
2314.00,0.0116
2313.00,0.0116
2312.00,0.0116
2311.00,0.0116
2310.00,0.0117
2309.00,0.0117
2308.00,0.0116
2307.00,0.0116
2306.00,0.0116
2305.00,0.0116
2304.00,0.0116
2303.00,0.0116
2302.00,0.0116
2301.00,0.0116
2300.00,0.0117
2299.00,0.0117
2298.00,0.0118
2297.00,0.0118
2296.00,0.0118
2295.00,0.0119
2294.00,0.0120
2293.00,0.0121
2292.00,0.0122
2291.00,0.0123
2290.00,0.0123
2289.00,0.0124
2288.00,0.0124
2287.00,0.0124
2286.00,0.0124
2285.00,0.0124
2284.00,0.0124
2283.00,0.0123
2282.00,0.0123
2281.00,0.0122
2280.00,0.0121
2279.00,0.0120
2278.00,0.0119
2277.00,0.0118
2276.00,0.0117
2275.00,0.0116
2274.00,0.0116
2273.00,0.0117
2272.00,0.0117
2271.00,0.0117
2270.00,0.0117
2269.00,0.0117
2268.00,0.0116
2267.00,0.0116
2266.00,0.0115
2265.00,0.0114
2264.00,0.0114
2263.00,0.0114
2262.00,0.0115
2261.00,0.0116
2260.00,0.0116
2259.00,0.0115
2258.00,0.0114
2257.00,0.0113
2256.00,0.0113
2255.00,0.0113
2254.00,0.0112
2253.00,0.0112
2252.00,0.0112
2251.00,0.0113
2250.00,0.0113
2249.00,0.0113
2248.00,0.0112
2247.00,0.0111
2246.00,0.0110
2245.00,0.0110
2244.00,0.0110
2243.00,0.0111
2242.00,0.0112
2241.00,0.0113
2240.00,0.0114
2239.00,0.0114
2238.00,0.0114
2237.00,0.0114
2236.00,0.0114
2235.00,0.0114
2234.00,0.0113
2233.00,0.0112
2232.00,0.0111
2231.00,0.0110
2230.00,0.0110
2229.00,0.0110
2228.00,0.0110
2227.00,0.0110
2226.00,0.0110
2225.00,0.0110
2224.00,0.0111
2223.00,0.0112
2222.00,0.0113
2221.00,0.0114
2220.00,0.0113
2219.00,0.0112
2218.00,0.0111
2217.00,0.0109
2216.00,0.0108
2215.00,0.0107
2214.00,0.0106
2213.00,0.0106
2212.00,0.0107
2211.00,0.0108
2210.00,0.0108
2209.00,0.0108
2208.00,0.0109
2207.00,0.0109
2206.00,0.0110
2205.00,0.0110
2204.00,0.0111
2203.00,0.0111
2202.00,0.0111
2201.00,0.0109
2200.00,0.0108
2199.00,0.0108
2198.00,0.0109
2197.00,0.0111
2196.00,0.0112
2195.00,0.0112
2194.00,0.0110
2193.00,0.0110
2192.00,0.0112
2191.00,0.0114
2190.00,0.0115
2189.00,0.0114
2188.00,0.0113
2187.00,0.0112
2186.00,0.0111
2185.00,0.0110
2184.00,0.0107
2183.00,0.0103
2182.00,0.0099
2181.00,0.0097
2180.00,0.0097
2179.00,0.0098
2178.00,0.0099
2177.00,0.0099
2176.00,0.0098
2175.00,0.0096
2174.00,0.0094
2173.00,0.0094
2172.00,0.0096
2171.00,0.0099
2170.00,0.0103
2169.00,0.0107
2168.00,0.0110
2167.00,0.0111
2166.00,0.0109
2165.00,0.0108
2164.00,0.0108
2163.00,0.0110
2162.00,0.0111
2161.00,0.0107
2160.00,0.0097
2159.00,0.0080
2158.00,0.0064
2157.00,0.0056
2156.00,0.0055
2155.00,0.0058
2154.00,0.0063
2153.00,0.0068
2152.00,0.0073
2151.00,0.0076
2150.00,0.0078
2149.00,0.0080
2148.00,0.0081
2147.00,0.0083
2146.00,0.0085
2145.00,0.0087
2144.00,0.0089
2143.00,0.0090
2142.00,0.0089
2141.00,0.0089
2140.00,0.0090
2139.00,0.0091
2138.00,0.0091
2137.00,0.0090
2136.00,0.0089
2135.00,0.0087
2134.00,0.0084
2133.00,0.0084
2132.00,0.0086
2131.00,0.0089
2130.00,0.0092
2129.00,0.0096
2128.00,0.0099
2127.00,0.0102
2126.00,0.0104
2125.00,0.0106
2124.00,0.0108
2123.00,0.0109
2122.00,0.0110
2121.00,0.0111
2120.00,0.0112
2119.00,0.0113
2118.00,0.0114
2117.00,0.0115
2116.00,0.0117
2115.00,0.0119
2114.00,0.0120
2113.00,0.0121
2112.00,0.0122
2111.00,0.0122
2110.00,0.0121
2109.00,0.0122
2108.00,0.0122
2107.00,0.0123
2106.00,0.0124
2105.00,0.0124
2104.00,0.0123
2103.00,0.0123
2102.00,0.0123
2101.00,0.0123
2100.00,0.0122
2099.00,0.0120
2098.00,0.0118
2097.00,0.0117
2096.00,0.0115
2095.00,0.0114
2094.00,0.0112
2093.00,0.0112
2092.00,0.0112
2091.00,0.0113
2090.00,0.0115
2089.00,0.0117
2088.00,0.0119
2087.00,0.0120
2086.00,0.0119
2085.00,0.0118
2084.00,0.0118
2083.00,0.0117
2082.00,0.0117
2081.00,0.0117
2080.00,0.0118
2079.00,0.0117
2078.00,0.0116
2077.00,0.0114
2076.00,0.0114
2075.00,0.0113
2074.00,0.0112
2073.00,0.0111
2072.00,0.0108
2071.00,0.0106
2070.00,0.0105
2069.00,0.0106
2068.00,0.0108
2067.00,0.0109
2066.00,0.0108
2065.00,0.0106
2064.00,0.0104
2063.00,0.0101
2062.00,0.0099
2061.00,0.0098
2060.00,0.0098
2059.00,0.0099
2058.00,0.0100
2057.00,0.0101
2056.00,0.0101
2055.00,0.0101
2054.00,0.0102
2053.00,0.0105
2052.00,0.0109
2051.00,0.0111
2050.00,0.0109
2049.00,0.0105
2048.00,0.0101
2047.00,0.0098
2046.00,0.0096
2045.00,0.0096
2044.00,0.0095
2043.00,0.0094
2042.00,0.0091
2041.00,0.0088
2040.00,0.0086
2039.00,0.0084
2038.00,0.0083
2037.00,0.0082
2036.00,0.0082
2035.00,0.0080
2034.00,0.0077
2033.00,0.0075
2032.00,0.0073
2031.00,0.0072
2030.00,0.0070
2029.00,0.0069
2028.00,0.0068
2027.00,0.0067
2026.00,0.0066
2025.00,0.0067
2024.00,0.0069
2023.00,0.0069
2022.00,0.0068
2021.00,0.0068
2020.00,0.0068
2019.00,0.0066
2018.00,0.0064
2017.00,0.0064
2016.00,0.0067
2015.00,0.0070
2014.00,0.0071
2013.00,0.0073
2012.00,0.0076
2011.00,0.0078
2010.00,0.0076
2009.00,0.0072
2008.00,0.0066
2007.00,0.0061
2006.00,0.0057
2005.00,0.0058
2004.00,0.0060
2003.00,0.0064
2002.00,0.0066
2001.00,0.0068
2000.00,0.0072
1999.00,0.0074
1998.00,0.0075
1997.00,0.0076
1996.00,0.0077
1995.00,0.0078
1994.00,0.0078
1993.00,0.0078
1992.00,0.0079
1991.00,0.0079
1990.00,0.0079
1989.00,0.0080
1988.00,0.0081
1987.00,0.0081
1986.00,0.0081
1985.00,0.0082
1984.00,0.0083
1983.00,0.0084
1982.00,0.0084
1981.00,0.0084
1980.00,0.0084
1979.00,0.0079
1978.00,0.0070
1977.00,0.0062
1976.00,0.0057
1975.00,0.0055
1974.00,0.0054
1973.00,0.0054
1972.00,0.0054
1971.00,0.0055
1970.00,0.0054
1969.00,0.0054
1968.00,0.0055
1967.00,0.0055
1966.00,0.0054
1965.00,0.0055
1964.00,0.0056
1963.00,0.0057
1962.00,0.0057
1961.00,0.0057
1960.00,0.0058
1959.00,0.0058
1958.00,0.0058
1957.00,0.0059
1956.00,0.0061
1955.00,0.0061
1954.00,0.0060
1953.00,0.0060
1952.00,0.0060
1951.00,0.0061
1950.00,0.0060
1949.00,0.0060
1948.00,0.0060
1947.00,0.0061
1946.00,0.0061
1945.00,0.0063
1944.00,0.0065
1943.00,0.0065
1942.00,0.0065
1941.00,0.0064
1940.00,0.0065
1939.00,0.0066
1938.00,0.0066
1937.00,0.0066
1936.00,0.0066
1935.00,0.0065
1934.00,0.0064
1933.00,0.0063
1932.00,0.0064
1931.00,0.0064
1930.00,0.0064
1929.00,0.0064
1928.00,0.0064
1927.00,0.0065
1926.00,0.0065
1925.00,0.0066
1924.00,0.0066
1923.00,0.0066
1922.00,0.0065
1921.00,0.0066
1920.00,0.0068
1919.00,0.0069
1918.00,0.0068
1917.00,0.0066
1916.00,0.0066
1915.00,0.0066
1914.00,0.0065
1913.00,0.0065
1912.00,0.0065
1911.00,0.0065
1910.00,0.0064
1909.00,0.0064
1908.00,0.0064
1907.00,0.0065
1906.00,0.0066
1905.00,0.0066
1904.00,0.0066
1903.00,0.0066
1902.00,0.0066
1901.00,0.0066
1900.00,0.0066
1899.00,0.0066
1898.00,0.0066
1897.00,0.0065
1896.00,0.0065
1895.00,0.0065
1894.00,0.0064
1893.00,0.0064
1892.00,0.0064
1891.00,0.0064
1890.00,0.0064
1889.00,0.0063
1888.00,0.0062
1887.00,0.0062
1886.00,0.0062
1885.00,0.0061
1884.00,0.0061
1883.00,0.0061
1882.00,0.0060
1881.00,0.0060
1880.00,0.0060
1879.00,0.0060
1878.00,0.0059
1877.00,0.0059
1876.00,0.0059
1875.00,0.0059
1874.00,0.0058
1873.00,0.0059
1872.00,0.0060
1871.00,0.0061
1870.00,0.0060
1869.00,0.0058
1868.00,0.0057
1867.00,0.0056
1866.00,0.0056
1865.00,0.0056
1864.00,0.0057
1863.00,0.0058
1862.00,0.0057
1861.00,0.0057
1860.00,0.0057
1859.00,0.0057
1858.00,0.0056
1857.00,0.0057
1856.00,0.0057
1855.00,0.0056
1854.00,0.0056
1853.00,0.0056
1852.00,0.0056
1851.00,0.0056
1850.00,0.0056
1849.00,0.0056
1848.00,0.0057
1847.00,0.0058
1846.00,0.0059
1845.00,0.0058
1844.00,0.0056
1843.00,0.0054
1842.00,0.0053
1841.00,0.0054
1840.00,0.0055
1839.00,0.0055
1838.00,0.0055
1837.00,0.0055
1836.00,0.0056
1835.00,0.0056
1834.00,0.0057
1833.00,0.0058
1832.00,0.0060
1831.00,0.0061
1830.00,0.0059
1829.00,0.0057
1828.00,0.0057
1827.00,0.0058
1826.00,0.0058
1825.00,0.0057
1824.00,0.0057
1823.00,0.0057
1822.00,0.0057
1821.00,0.0056
1820.00,0.0056
1819.00,0.0054
1818.00,0.0053
1817.00,0.0053
1816.00,0.0053
1815.00,0.0054
1814.00,0.0056
1813.00,0.0057
1812.00,0.0058
1811.00,0.0057
1810.00,0.0056
1809.00,0.0055
1808.00,0.0055
1807.00,0.0055
1806.00,0.0056
1805.00,0.0056
1804.00,0.0057
1803.00,0.0058
1802.00,0.0058
1801.00,0.0058
1800.00,0.0058
1799.00,0.0057
1798.00,0.0056
1797.00,0.0056
1796.00,0.0057
1795.00,0.0059
1794.00,0.0060
1793.00,0.0059
1792.00,0.0056
1791.00,0.0054
1790.00,0.0053
1789.00,0.0054
1788.00,0.0055
1787.00,0.0056
1786.00,0.0055
1785.00,0.0055
1784.00,0.0054
1783.00,0.0055
1782.00,0.0055
1781.00,0.0056
1780.00,0.0055
1779.00,0.0055
1778.00,0.0054
1777.00,0.0054
1776.00,0.0054
1775.00,0.0055
1774.00,0.0056
1773.00,0.0056
1772.00,0.0056
1771.00,0.0055
1770.00,0.0055
1769.00,0.0054
1768.00,0.0054
1767.00,0.0054
1766.00,0.0054
1765.00,0.0056
1764.00,0.0058
1763.00,0.0059
1762.00,0.0058
1761.00,0.0057
1760.00,0.0058
1759.00,0.0059
1758.00,0.0061
1757.00,0.0061
1756.00,0.0063
1755.00,0.0064
1754.00,0.0066
1753.00,0.0068
1752.00,0.0070
1751.00,0.0073
1750.00,0.0076
1749.00,0.0080
1748.00,0.0085
1747.00,0.0087
1746.00,0.0089
1745.00,0.0091
1744.00,0.0094
1743.00,0.0098
1742.00,0.0102
1741.00,0.0105
1740.00,0.0108
1739.00,0.0108
1738.00,0.0108
1737.00,0.0110
1736.00,0.0112
1735.00,0.0111
1734.00,0.0110
1733.00,0.0111
1732.00,0.0117
1731.00,0.0123
1730.00,0.0127
1729.00,0.0130
1728.00,0.0133
1727.00,0.0135
1726.00,0.0138
1725.00,0.0140
1724.00,0.0144
1723.00,0.0149
1722.00,0.0153
1721.00,0.0157
1720.00,0.0161
1719.00,0.0162
1718.00,0.0162
1717.00,0.0166
1716.00,0.0175
1715.00,0.0185
1714.00,0.0192
1713.00,0.0197
1712.00,0.0203
1711.00,0.0208
1710.00,0.0214
1709.00,0.0221
1708.00,0.0230
1707.00,0.0239
1706.00,0.0248
1705.00,0.0258
1704.00,0.0268
1703.00,0.0277
1702.00,0.0288
1701.00,0.0301
1700.00,0.0317
1699.00,0.0331
1698.00,0.0343
1697.00,0.0356
1696.00,0.0376
1695.00,0.0399
1694.00,0.0421
1693.00,0.0441
1692.00,0.0459
1691.00,0.0477
1690.00,0.0496
1689.00,0.0516
1688.00,0.0535
1687.00,0.0549
1686.00,0.0564
1685.00,0.0589
1684.00,0.0626
1683.00,0.0663
1682.00,0.0689
1681.00,0.0709
1680.00,0.0728
1679.00,0.0747
1678.00,0.0766
1677.00,0.0785
1676.00,0.0810
1675.00,0.0838
1674.00,0.0865
1673.00,0.0887
1672.00,0.0907
1671.00,0.0928
1670.00,0.0955
1669.00,0.0986
1668.00,0.1017
1667.00,0.1041
1666.00,0.1059
1665.00,0.1077
1664.00,0.1100
1663.00,0.1129
1662.00,0.1160
1661.00,0.1190
1660.00,0.1215
1659.00,0.1235
1658.00,0.1253
1657.00,0.1265
1656.00,0.1271
1655.00,0.1274
1654.00,0.1290
1653.00,0.1335
1652.00,0.1384
1651.00,0.1413
1650.00,0.1422
1649.00,0.1421
1648.00,0.1422
1647.00,0.1435
1646.00,0.1455
1645.00,0.1472
1644.00,0.1481
1643.00,0.1484
1642.00,0.1483
1641.00,0.1482
1640.00,0.1481
1639.00,0.1479
1638.00,0.1473
1637.00,0.1468
1636.00,0.1472
1635.00,0.1483
1634.00,0.1488
1633.00,0.1482
1632.00,0.1469
1631.00,0.1452
1630.00,0.1434
1629.00,0.1416
1628.00,0.1401
1627.00,0.1385
1626.00,0.1367
1625.00,0.1347
1624.00,0.1324
1623.00,0.1303
1622.00,0.1282
1621.00,0.1260
1620.00,0.1235
1619.00,0.1205
1618.00,0.1172
1617.00,0.1141
1616.00,0.1116
1615.00,0.1096
1614.00,0.1075
1613.00,0.1049
1612.00,0.1019
1611.00,0.0990
1610.00,0.0963
1609.00,0.0936
1608.00,0.0911
1607.00,0.0887
1606.00,0.0863
1605.00,0.0840
1604.00,0.0816
1603.00,0.0794
1602.00,0.0772
1601.00,0.0752
1600.00,0.0732
1599.00,0.0712
1598.00,0.0694
1597.00,0.0676
1596.00,0.0658
1595.00,0.0641
1594.00,0.0626
1593.00,0.0610
1592.00,0.0595
1591.00,0.0581
1590.00,0.0568
1589.00,0.0556
1588.00,0.0545
1587.00,0.0534
1586.00,0.0525
1585.00,0.0515
1584.00,0.0506
1583.00,0.0499
1582.00,0.0492
1581.00,0.0486
1580.00,0.0479
1579.00,0.0471
1578.00,0.0463
1577.00,0.0456
1576.00,0.0454
1575.00,0.0457
1574.00,0.0461
1573.00,0.0463
1572.00,0.0462
1571.00,0.0460
1570.00,0.0460
1569.00,0.0462
1568.00,0.0464
1567.00,0.0466
1566.00,0.0468
1565.00,0.0471
1564.00,0.0472
1563.00,0.0473
1562.00,0.0471
1561.00,0.0471
1560.00,0.0475
1559.00,0.0489
1558.00,0.0511
1557.00,0.0522
1556.00,0.0526
1555.00,0.0529
1554.00,0.0532
1553.00,0.0536
1552.00,0.0540
1551.00,0.0543
1550.00,0.0546
1549.00,0.0548
1548.00,0.0549
1547.00,0.0548
1546.00,0.0545
1545.00,0.0541
1544.00,0.0538
1543.00,0.0535
1542.00,0.0530
1541.00,0.0522
1540.00,0.0514
1539.00,0.0509
1538.00,0.0505
1537.00,0.0502
1536.00,0.0497
1535.00,0.0488
1534.00,0.0477
1533.00,0.0467
1532.00,0.0457
1531.00,0.0448
1530.00,0.0440
1529.00,0.0430
1528.00,0.0419
1527.00,0.0408
1526.00,0.0398
1525.00,0.0389
1524.00,0.0380
1523.00,0.0369
1522.00,0.0358
1521.00,0.0350
1520.00,0.0346
1519.00,0.0343
1518.00,0.0337
1517.00,0.0327
1516.00,0.0316
1515.00,0.0304
1514.00,0.0293
1513.00,0.0281
1512.00,0.0268
1511.00,0.0256
1510.00,0.0244
1509.00,0.0230
1508.00,0.0216
1507.00,0.0203
1506.00,0.0193
1505.00,0.0183
1504.00,0.0177
1503.00,0.0171
1502.00,0.0164
1501.00,0.0157
1500.00,0.0150
1499.00,0.0142
1498.00,0.0133
1497.00,0.0124
1496.00,0.0117
1495.00,0.0113
1494.00,0.0110
1493.00,0.0108
1492.00,0.0106
1491.00,0.0102
1490.00,0.0098
1489.00,0.0095
1488.00,0.0094
1487.00,0.0093
1486.00,0.0092
1485.00,0.0091
1484.00,0.0092
1483.00,0.0093
1482.00,0.0095
1481.00,0.0098
1480.00,0.0102
1479.00,0.0107
1478.00,0.0111
1477.00,0.0116
1476.00,0.0121
1475.00,0.0126
1474.00,0.0133
1473.00,0.0141
1472.00,0.0151
1471.00,0.0160
1470.00,0.0165
1469.00,0.0170
1468.00,0.0173
1467.00,0.0176
1466.00,0.0179
1465.00,0.0182
1464.00,0.0187
1463.00,0.0190
1462.00,0.0194
1461.00,0.0197
1460.00,0.0198
1459.00,0.0199
1458.00,0.0200
1457.00,0.0206
1456.00,0.0213
1455.00,0.0219
1454.00,0.0222
1453.00,0.0223
1452.00,0.0222
1451.00,0.0221
1450.00,0.0221
1449.00,0.0221
1448.00,0.0221
1447.00,0.0221
1446.00,0.0221
1445.00,0.0221
1444.00,0.0221
1443.00,0.0221
1442.00,0.0221
1441.00,0.0222
1440.00,0.0222
1439.00,0.0222
1438.00,0.0222
1437.00,0.0224
1436.00,0.0227
1435.00,0.0231
1434.00,0.0233
1433.00,0.0235
1432.00,0.0237
1431.00,0.0239
1430.00,0.0242
1429.00,0.0245
1428.00,0.0248
1427.00,0.0250
1426.00,0.0252
1425.00,0.0255
1424.00,0.0258
1423.00,0.0260
1422.00,0.0262
1421.00,0.0262
1420.00,0.0263
1419.00,0.0266
1418.00,0.0270
1417.00,0.0274
1416.00,0.0276
1415.00,0.0275
1414.00,0.0272
1413.00,0.0270
1412.00,0.0268
1411.00,0.0266
1410.00,0.0264
1409.00,0.0262
1408.00,0.0260
1407.00,0.0257
1406.00,0.0253
1405.00,0.0249
1404.00,0.0245
1403.00,0.0241
1402.00,0.0236
1401.00,0.0231
1400.00,0.0225
1399.00,0.0219
1398.00,0.0214
1397.00,0.0209
1396.00,0.0204
1395.00,0.0200
1394.00,0.0197
1393.00,0.0195
1392.00,0.0193
1391.00,0.0191
1390.00,0.0189
1389.00,0.0188
1388.00,0.0190
1387.00,0.0194
1386.00,0.0199
1385.00,0.0205
1384.00,0.0209
1383.00,0.0212
1382.00,0.0214
1381.00,0.0216
1380.00,0.0218
1379.00,0.0219
1378.00,0.0220
1377.00,0.0220
1376.00,0.0219
1375.00,0.0217
1374.00,0.0214
1373.00,0.0211
1372.00,0.0208
1371.00,0.0203
1370.00,0.0198
1369.00,0.0193
1368.00,0.0188
1367.00,0.0183
1366.00,0.0178
1365.00,0.0172
1364.00,0.0167
1363.00,0.0163
1362.00,0.0160
1361.00,0.0159
1360.00,0.0158
1359.00,0.0156
1358.00,0.0154
1357.00,0.0152
1356.00,0.0149
1355.00,0.0147
1354.00,0.0145
1353.00,0.0143
1352.00,0.0139
1351.00,0.0135
1350.00,0.0131
1349.00,0.0126
1348.00,0.0121
1347.00,0.0116
1346.00,0.0111
1345.00,0.0106
1344.00,0.0101
1343.00,0.0097
1342.00,0.0092
1341.00,0.0087
1340.00,0.0082
1339.00,0.0079
1338.00,0.0077
1337.00,0.0075
1336.00,0.0072
1335.00,0.0069
1334.00,0.0066
1333.00,0.0062
1332.00,0.0059
1331.00,0.0057
1330.00,0.0055
1329.00,0.0055
1328.00,0.0055
1327.00,0.0055
1326.00,0.0055
1325.00,0.0055
1324.00,0.0055
1323.00,0.0055
1322.00,0.0055
1321.00,0.0055
1320.00,0.0055
1319.00,0.0055
1318.00,0.0055
1317.00,0.0056
1316.00,0.0056
1315.00,0.0056
1314.00,0.0056
1313.00,0.0056
1312.00,0.0056
1311.00,0.0056
1310.00,0.0057
1309.00,0.0058
1308.00,0.0059
1307.00,0.0061
1306.00,0.0063
1305.00,0.0066
1304.00,0.0069
1303.00,0.0073
1302.00,0.0078
1301.00,0.0083
1300.00,0.0089
1299.00,0.0097
1298.00,0.0105
1297.00,0.0114
1296.00,0.0125
1295.00,0.0136
1294.00,0.0148
1293.00,0.0162
1292.00,0.0176
1291.00,0.0190
1290.00,0.0206
1289.00,0.0223
1288.00,0.0242
1287.00,0.0262
1286.00,0.0284
1285.00,0.0306
1284.00,0.0329
1283.00,0.0353
1282.00,0.0378
1281.00,0.0404
1280.00,0.0430
1279.00,0.0457
1278.00,0.0485
1277.00,0.0513
1276.00,0.0542
1275.00,0.0572
1274.00,0.0601
1273.00,0.0631
1272.00,0.0661
1271.00,0.0691
1270.00,0.0721
1269.00,0.0751
1268.00,0.0779
1267.00,0.0807
1266.00,0.0832
1265.00,0.0857
1264.00,0.0882
1263.00,0.0904
1262.00,0.0926
1261.00,0.0947
1260.00,0.0967
1259.00,0.0986
1258.00,0.1003
1257.00,0.1018
1256.00,0.1032
1255.00,0.1045
1254.00,0.1057
1253.00,0.1069
1252.00,0.1080
1251.00,0.1090
1250.00,0.1100
1249.00,0.1108
1248.00,0.1116
1247.00,0.1123
1246.00,0.1130
1245.00,0.1137
1244.00,0.1145
1243.00,0.1153
1242.00,0.1162
1241.00,0.1171
1240.00,0.1181
1239.00,0.1192
1238.00,0.1202
1237.00,0.1214
1236.00,0.1226
1235.00,0.1239
1234.00,0.1252
1233.00,0.1266
1232.00,0.1279
1231.00,0.1292
1230.00,0.1305
1229.00,0.1317
1228.00,0.1328
1227.00,0.1339
1226.00,0.1348
1225.00,0.1356
1224.00,0.1363
1223.00,0.1369
1222.00,0.1373
1221.00,0.1376
1220.00,0.1378
1219.00,0.1377
1218.00,0.1373
1217.00,0.1368
1216.00,0.1361
1215.00,0.1351
1214.00,0.1338
1213.00,0.1323
1212.00,0.1306
1211.00,0.1287
1210.00,0.1266
1209.00,0.1245
1208.00,0.1222
1207.00,0.1200
1206.00,0.1177
1205.00,0.1155
1204.00,0.1134
1203.00,0.1114
1202.00,0.1095
1201.00,0.1079
1200.00,0.1065
1199.00,0.1054
1198.00,0.1045
1197.00,0.1038
1196.00,0.1032
1195.00,0.1026
1194.00,0.1018
1193.00,0.1007
1192.00,0.0992
1191.00,0.0972
1190.00,0.0945
1189.00,0.0915
1188.00,0.0881
1187.00,0.0846
1186.00,0.0812
1185.00,0.0780
1184.00,0.0752
1183.00,0.0729
1182.00,0.0710
1181.00,0.0696
1180.00,0.0686
1179.00,0.0680
1178.00,0.0677
1177.00,0.0677
1176.00,0.0681
1175.00,0.0688
1174.00,0.0698
1173.00,0.0711
1172.00,0.0728
1171.00,0.0747
1170.00,0.0770
1169.00,0.0796
1168.00,0.0825
1167.00,0.0856
1166.00,0.0890
1165.00,0.0924
1164.00,0.0960
1163.00,0.0995
1162.00,0.1028
1161.00,0.1061
1160.00,0.1091
1159.00,0.1118
1158.00,0.1142
1157.00,0.1163
1156.00,0.1180
1155.00,0.1195
1154.00,0.1205
1153.00,0.1213
1152.00,0.1217
1151.00,0.1217
1150.00,0.1213
1149.00,0.1207
1148.00,0.1198
1147.00,0.1187
1146.00,0.1174
1145.00,0.1161
1144.00,0.1148
1143.00,0.1135
1142.00,0.1123
1141.00,0.1113
1140.00,0.1106
1139.00,0.1100
1138.00,0.1096
1137.00,0.1093
1136.00,0.1092
1135.00,0.1093
1134.00,0.1096
1133.00,0.1103
1132.00,0.1115
1131.00,0.1131
1130.00,0.1153
1129.00,0.1179
1128.00,0.1208
1127.00,0.1235
1126.00,0.1255
1125.00,0.1266
1124.00,0.1265
1123.00,0.1253
1122.00,0.1232
1121.00,0.1206
1120.00,0.1180
1119.00,0.1154
1118.00,0.1131
1117.00,0.1111
1116.00,0.1094
1115.00,0.1080
1114.00,0.1070
1113.00,0.1063
1112.00,0.1061
1111.00,0.1061
1110.00,0.1064
1109.00,0.1070
1108.00,0.1081
1107.00,0.1096
1106.00,0.1114
1105.00,0.1136
1104.00,0.1162
1103.00,0.1189
1102.00,0.1219
1101.00,0.1250
1100.00,0.1282
1099.00,0.1313
1098.00,0.1344
1097.00,0.1373
1096.00,0.1401
1095.00,0.1425
1094.00,0.1445
1093.00,0.1464
1092.00,0.1482
1091.00,0.1500
1090.00,0.1518
1089.00,0.1538
1088.00,0.1560
1087.00,0.1585
1086.00,0.1611
1085.00,0.1642
1084.00,0.1675
1083.00,0.1710
1082.00,0.1746
1081.00,0.1784
1080.00,0.1824
1079.00,0.1864
1078.00,0.1905
1077.00,0.1947
1076.00,0.1989
1075.00,0.2028
1074.00,0.2063
1073.00,0.2096
1072.00,0.2126
1071.00,0.2152
1070.00,0.2173
1069.00,0.2190
1068.00,0.2202
1067.00,0.2206
1066.00,0.2202
1065.00,0.2192
1064.00,0.2177
1063.00,0.2155
1062.00,0.2130
1061.00,0.2103
1060.00,0.2076
1059.00,0.2052
1058.00,0.2032
1057.00,0.2017
1056.00,0.2008
1055.00,0.2005
1054.00,0.2006
1053.00,0.2014
1052.00,0.2029
1051.00,0.2048
1050.00,0.2071
1049.00,0.2099
1048.00,0.2132
1047.00,0.2167
1046.00,0.2205
1045.00,0.2244
1044.00,0.2282
1043.00,0.2315
1042.00,0.2343
1041.00,0.2365
1040.00,0.2381
1039.00,0.2390
1038.00,0.2394
1037.00,0.2394
1036.00,0.2391
1035.00,0.2387
1034.00,0.2383
1033.00,0.2381
1032.00,0.2382
1031.00,0.2382
1030.00,0.2380
1029.00,0.2375
1028.00,0.2363
1027.00,0.2342
1026.00,0.2311
1025.00,0.2272
1024.00,0.2225
1023.00,0.2170
1022.00,0.2109
1021.00,0.2045
1020.00,0.1980
1019.00,0.1915
1018.00,0.1852
1017.00,0.1791
1016.00,0.1736
1015.00,0.1684
1014.00,0.1637
1013.00,0.1594
1012.00,0.1557
1011.00,0.1525
1010.00,0.1498
1009.00,0.1474
1008.00,0.1453
1007.00,0.1433
1006.00,0.1413
1005.00,0.1392
1004.00,0.1367
1003.00,0.1334
1002.00,0.1293
1001.00,0.1244
1000.00,0.1188
999.00,0.1130
998.00,0.1073
997.00,0.1019
996.00,0.0971
995.00,0.0929
994.00,0.0893
993.00,0.0862
992.00,0.0834
991.00,0.0810
990.00,0.0786
989.00,0.0763
988.00,0.0740
987.00,0.0716
986.00,0.0690
985.00,0.0666
984.00,0.0644
983.00,0.0625
982.00,0.0610
981.00,0.0598
980.00,0.0588
979.00,0.0580
978.00,0.0573
977.00,0.0568
976.00,0.0564
975.00,0.0559
974.00,0.0554
973.00,0.0549
972.00,0.0543
971.00,0.0534
970.00,0.0520
969.00,0.0500
968.00,0.0473
967.00,0.0439
966.00,0.0399
965.00,0.0356
964.00,0.0310
963.00,0.0265
962.00,0.0222
961.00,0.0183
960.00,0.0149
959.00,0.0120
958.00,0.0095
957.00,0.0076
956.00,0.0062
955.00,0.0052
954.00,0.0046
953.00,0.0043
952.00,0.0043
951.00,0.0045
950.00,0.0050
949.00,0.0058
948.00,0.0069
947.00,0.0083
946.00,0.0102
945.00,0.0124
944.00,0.0150
943.00,0.0182
942.00,0.0218
941.00,0.0261
940.00,0.0308
939.00,0.0360
938.00,0.0416
937.00,0.0474
936.00,0.0533
935.00,0.0588
934.00,0.0639
933.00,0.0684
932.00,0.0722
931.00,0.0753
930.00,0.0776
929.00,0.0793
928.00,0.0803
927.00,0.0805
926.00,0.0802
925.00,0.0793
924.00,0.0780
923.00,0.0763
922.00,0.0744
921.00,0.0723
920.00,0.0700
919.00,0.0675
918.00,0.0647
917.00,0.0618
916.00,0.0588
915.00,0.0557
914.00,0.0524
913.00,0.0492
912.00,0.0460
911.00,0.0430
910.00,0.0401
909.00,0.0375
908.00,0.0352
907.00,0.0332
906.00,0.0315
905.00,0.0302
904.00,0.0292
903.00,0.0284
902.00,0.0277
901.00,0.0271
900.00,0.0266
899.00,0.0262
898.00,0.0258
897.00,0.0255
896.00,0.0252
895.00,0.0250
894.00,0.0249
893.00,0.0249
892.00,0.0249
891.00,0.0248
890.00,0.0246
889.00,0.0241
888.00,0.0232
887.00,0.0220
886.00,0.0203
885.00,0.0183
884.00,0.0161
883.00,0.0135
882.00,0.0108
881.00,0.0084
880.00,0.0064
879.00,0.0050
878.00,0.0042
877.00,0.0039
876.00,0.0042
875.00,0.0047
874.00,0.0053
873.00,0.0057
872.00,0.0059
871.00,0.0059
870.00,0.0058
869.00,0.0056
868.00,0.0055
867.00,0.0055
866.00,0.0058
865.00,0.0063
864.00,0.0073
863.00,0.0086
862.00,0.0103
861.00,0.0123
860.00,0.0148
859.00,0.0174
858.00,0.0202
857.00,0.0233
856.00,0.0266
855.00,0.0301
854.00,0.0337
853.00,0.0373
852.00,0.0409
851.00,0.0443
850.00,0.0473
849.00,0.0499
848.00,0.0519
847.00,0.0531
846.00,0.0535
845.00,0.0530
844.00,0.0518
843.00,0.0499
842.00,0.0474
841.00,0.0445
840.00,0.0414
839.00,0.0381
838.00,0.0347
837.00,0.0315
836.00,0.0285
835.00,0.0256
834.00,0.0229
833.00,0.0205
832.00,0.0183
831.00,0.0164
830.00,0.0145
829.00,0.0129
828.00,0.0115
827.00,0.0104
826.00,0.0093
825.00,0.0083
824.00,0.0074
823.00,0.0066
822.00,0.0060
821.00,0.0057
820.00,0.0054
819.00,0.0052
818.00,0.0050
817.00,0.0049
816.00,0.0051
815.00,0.0054
814.00,0.0058
813.00,0.0062
812.00,0.0068
811.00,0.0075
810.00,0.0083
809.00,0.0092
808.00,0.0100
807.00,0.0107
806.00,0.0113
805.00,0.0117
804.00,0.0121
803.00,0.0123
802.00,0.0123
801.00,0.0123
800.00,0.0121
799.00,0.0117
798.00,0.0112
797.00,0.0105
796.00,0.0099
795.00,0.0091
794.00,0.0084
793.00,0.0076
792.00,0.0070
791.00,0.0064
790.00,0.0059
789.00,0.0054
788.00,0.0051
787.00,0.0048
786.00,0.0047
785.00,0.0047
784.00,0.0048
783.00,0.0050
782.00,0.0053
781.00,0.0057
780.00,0.0063
779.00,0.0071
778.00,0.0080
777.00,0.0088
776.00,0.0096
775.00,0.0103
774.00,0.0109
773.00,0.0113
772.00,0.0114
771.00,0.0112
770.00,0.0106
769.00,0.0099
768.00,0.0090
767.00,0.0082
766.00,0.0074
765.00,0.0068
764.00,0.0064
763.00,0.0059
762.00,0.0055
761.00,0.0052
760.00,0.0051
759.00,0.0051
758.00,0.0053
757.00,0.0057
756.00,0.0063
755.00,0.0071
754.00,0.0081
753.00,0.0093
752.00,0.0108
751.00,0.0127
750.00,0.0147
749.00,0.0169
748.00,0.0190
747.00,0.0209
746.00,0.0226
745.00,0.0242
744.00,0.0258
743.00,0.0272
742.00,0.0284
741.00,0.0295
740.00,0.0304
739.00,0.0311
738.00,0.0316
737.00,0.0319
736.00,0.0320
735.00,0.0318
734.00,0.0315
733.00,0.0314
732.00,0.0313
731.00,0.0312
730.00,0.0311
729.00,0.0310
728.00,0.0312
727.00,0.0314
726.00,0.0316
725.00,0.0317
724.00,0.0316
723.00,0.0312
722.00,0.0307
721.00,0.0300
720.00,0.0295
719.00,0.0290
718.00,0.0285
717.00,0.0282
716.00,0.0281
715.00,0.0281
714.00,0.0284
713.00,0.0289
712.00,0.0298
711.00,0.0308
710.00,0.0321
709.00,0.0336
708.00,0.0353
707.00,0.0370
706.00,0.0385
705.00,0.0399
704.00,0.0413
703.00,0.0424
702.00,0.0430
701.00,0.0432
700.00,0.0430
699.00,0.0423
698.00,0.0413
697.00,0.0402
696.00,0.0388
695.00,0.0373
694.00,0.0355
693.00,0.0335
692.00,0.0313
691.00,0.0292
690.00,0.0270
689.00,0.0251
688.00,0.0232
687.00,0.0215
686.00,0.0199
685.00,0.0185
684.00,0.0173
683.00,0.0162
682.00,0.0151
681.00,0.0142
680.00,0.0136
679.00,0.0133
678.00,0.0133
677.00,0.0136
676.00,0.0140
675.00,0.0143
674.00,0.0145
673.00,0.0147
672.00,0.0147
671.00,0.0142
670.00,0.0135
669.00,0.0138
668.00,0.0160
667.00,0.0183
666.00,0.0188
665.00,0.0182
664.00,0.0177
663.00,0.0179
662.00,0.0189
661.00,0.0205
660.00,0.0226
659.00,0.0250
658.00,0.0269
657.00,0.0278
656.00,0.0273
655.00,0.0256
654.00,0.0233
653.00,0.0210
652.00,0.0191
651.00,0.0174
650.00,0.0159
649.00,0.0148
648.00,0.0146
647.00,0.0151
646.00,0.0161
645.00,0.0172
644.00,0.0178
643.00,0.0175
642.00,0.0164
641.00,0.0149
640.00,0.0135
639.00,0.0122
638.00,0.0111
637.00,0.0103
636.00,0.0099
635.00,0.0099
634.00,0.0101
633.00,0.0107
632.00,0.0115
631.00,0.0124
630.00,0.0132
629.00,0.0140
628.00,0.0149
627.00,0.0162
626.00,0.0178
625.00,0.0197
624.00,0.0218
623.00,0.0238
622.00,0.0255
621.00,0.0275
620.00,0.0299
619.00,0.0327
618.00,0.0355
617.00,0.0382
616.00,0.0409
615.00,0.0433
614.00,0.0454
613.00,0.0474
612.00,0.0496
611.00,0.0517
610.00,0.0539
609.00,0.0562
608.00,0.0588
607.00,0.0614
606.00,0.0637
605.00,0.0657
604.00,0.0676
603.00,0.0689
602.00,0.0698
601.00,0.0706
600.00,0.0715
599.00,0.0724
598.00,0.0730
597.00,0.0732
596.00,0.0732
595.00,0.0728
594.00,0.0721
593.00,0.0713
592.00,0.0708
591.00,0.0703
590.00,0.0697
589.00,0.0692
588.00,0.0691
587.00,0.0692
586.00,0.0694
585.00,0.0698
584.00,0.0706
583.00,0.0715
582.00,0.0722
581.00,0.0732
580.00,0.0745
579.00,0.0755
578.00,0.0758
577.00,0.0756
576.00,0.0753
575.00,0.0748
574.00,0.0736
573.00,0.0720
572.00,0.0706
571.00,0.0695
570.00,0.0683
569.00,0.0670
568.00,0.0656
567.00,0.0641
566.00,0.0625
565.00,0.0611
564.00,0.0599
563.00,0.0585
562.00,0.0567
561.00,0.0550
560.00,0.0537
559.00,0.0525
558.00,0.0512
557.00,0.0501
556.00,0.0496
555.00,0.0494
554.00,0.0491
553.00,0.0486
552.00,0.0479
551.00,0.0470
550.00,0.0460
549.00,0.0454
548.00,0.0452
547.00,0.0452
546.00,0.0453
545.00,0.0456
544.00,0.0463
543.00,0.0467
542.00,0.0464
541.00,0.0458
540.00,0.0453
539.00,0.0450
538.00,0.0446
537.00,0.0440
536.00,0.0434
535.00,0.0426
534.00,0.0416
533.00,0.0407
532.00,0.0403
531.00,0.0401
530.00,0.0394
529.00,0.0385
528.00,0.0378
527.00,0.0375
526.00,0.0377
525.00,0.0383
524.00,0.0389
523.00,0.0390
522.00,0.0384
521.00,0.0378
520.00,0.0377
519.00,0.0376
518.00,0.0373
517.00,0.0370
516.00,0.0367
515.00,0.0359
514.00,0.0343
513.00,0.0328
512.00,0.0319
511.00,0.0314
510.00,0.0305
509.00,0.0295
508.00,0.0286
507.00,0.0276
506.00,0.0263
505.00,0.0247
504.00,0.0232
503.00,0.0218
502.00,0.0203
501.00,0.0193
500.00,0.0191
499.00,0.0191
498.00,0.0187
497.00,0.0181
496.00,0.0174
495.00,0.0167
494.00,0.0162
493.00,0.0164
492.00,0.0175
491.00,0.0183
490.00,0.0177
489.00,0.0165
488.00,0.0154
487.00,0.0147
486.00,0.0141
485.00,0.0139
484.00,0.0142
483.00,0.0147
482.00,0.0149
481.00,0.0150
480.00,0.0151
479.00,0.0146
478.00,0.0137
477.00,0.0130
476.00,0.0130
475.00,0.0126
474.00,0.0116
473.00,0.0109
472.00,0.0113
471.00,0.0115
470.00,0.0105
469.00,0.0093
468.00,0.0094
467.00,0.0103
466.00,0.0108
465.00,0.0109
464.00,0.0113
463.00,0.0116
462.00,0.0110
461.00,0.0100
460.00,0.0094
459.00,0.0093
458.00,0.0087
457.00,0.0077
456.00,0.0069
455.00,0.0053
454.00,0.0033
453.00,0.0021
452.00,0.0026
451.00,0.0038
450.00,0.0046
