Created as New Dataset,Sample 002 By Administrator Date Monday, June 09 2025
cm-1,A
4000.00,0.0069
3999.00,0.0069
3998.00,0.0069
3997.00,0.0069
3996.00,0.0069
3995.00,0.0069
3994.00,0.0069
3993.00,0.0069
3992.00,0.0069
3991.00,0.0069
3990.00,0.0069
3989.00,0.0069
3988.00,0.0070
3987.00,0.0070
3986.00,0.0070
3985.00,0.0070
3984.00,0.0069
3983.00,0.0069
3982.00,0.0069
3981.00,0.0069
3980.00,0.0069
3979.00,0.0069
3978.00,0.0070
3977.00,0.0070
3976.00,0.0071
3975.00,0.0071
3974.00,0.0071
3973.00,0.0071
3972.00,0.0070
3971.00,0.0070
3970.00,0.0070
3969.00,0.0069
3968.00,0.0069
3967.00,0.0069
3966.00,0.0069
3965.00,0.0070
3964.00,0.0070
3963.00,0.0070
3962.00,0.0070
3961.00,0.0070
3960.00,0.0070
3959.00,0.0071
3958.00,0.0071
3957.00,0.0071
3956.00,0.0071
3955.00,0.0071
3954.00,0.0071
3953.00,0.0071
3952.00,0.0071
3951.00,0.0072
3950.00,0.0072
3949.00,0.0071
3948.00,0.0071
3947.00,0.0071
3946.00,0.0071
3945.00,0.0071
3944.00,0.0071
3943.00,0.0070
3942.00,0.0070
3941.00,0.0069
3940.00,0.0069
3939.00,0.0070
3938.00,0.0070
3937.00,0.0071
3936.00,0.0071
3935.00,0.0072
3934.00,0.0072
3933.00,0.0073
3932.00,0.0072
3931.00,0.0072
3930.00,0.0072
3929.00,0.0071
3928.00,0.0072
3927.00,0.0072
3926.00,0.0071
3925.00,0.0071
3924.00,0.0070
3923.00,0.0070
3922.00,0.0071
3921.00,0.0072
3920.00,0.0072
3919.00,0.0072
3918.00,0.0072
3917.00,0.0072
3916.00,0.0071
3915.00,0.0070
3914.00,0.0070
3913.00,0.0070
3912.00,0.0069
3911.00,0.0069
3910.00,0.0069
3909.00,0.0069
3908.00,0.0069
3907.00,0.0070
3906.00,0.0071
3905.00,0.0072
3904.00,0.0073
3903.00,0.0074
3902.00,0.0075
3901.00,0.0076
3900.00,0.0076
3899.00,0.0075
3898.00,0.0074
3897.00,0.0073
3896.00,0.0072
3895.00,0.0072
3894.00,0.0072
3893.00,0.0071
3892.00,0.0071
3891.00,0.0071
3890.00,0.0071
3889.00,0.0071
3888.00,0.0072
3887.00,0.0073
3886.00,0.0073
3885.00,0.0073
3884.00,0.0072
3883.00,0.0073
3882.00,0.0073
3881.00,0.0073
3880.00,0.0073
3879.00,0.0072
3878.00,0.0072
3877.00,0.0072
3876.00,0.0073
3875.00,0.0074
3874.00,0.0073
3873.00,0.0073
3872.00,0.0073
3871.00,0.0074
3870.00,0.0074
3869.00,0.0074
3868.00,0.0073
3867.00,0.0074
3866.00,0.0075
3865.00,0.0076
3864.00,0.0075
3863.00,0.0074
3862.00,0.0074
3861.00,0.0073
3860.00,0.0073
3859.00,0.0072
3858.00,0.0070
3857.00,0.0068
3856.00,0.0068
3855.00,0.0069
3854.00,0.0072
3853.00,0.0073
3852.00,0.0075
3851.00,0.0075
3850.00,0.0076
3849.00,0.0076
3848.00,0.0075
3847.00,0.0074
3846.00,0.0073
3845.00,0.0073
3844.00,0.0072
3843.00,0.0073
3842.00,0.0073
3841.00,0.0074
3840.00,0.0075
3839.00,0.0076
3838.00,0.0076
3837.00,0.0076
3836.00,0.0076
3835.00,0.0075
3834.00,0.0075
3833.00,0.0074
3832.00,0.0074
3831.00,0.0074
3830.00,0.0074
3829.00,0.0074
3828.00,0.0073
3827.00,0.0072
3826.00,0.0071
3825.00,0.0071
3824.00,0.0071
3823.00,0.0073
3822.00,0.0075
3821.00,0.0075
3820.00,0.0074
3819.00,0.0074
3818.00,0.0075
3817.00,0.0076
3816.00,0.0075
3815.00,0.0074
3814.00,0.0073
3813.00,0.0072
3812.00,0.0071
3811.00,0.0070
3810.00,0.0069
3809.00,0.0069
3808.00,0.0070
3807.00,0.0071
3806.00,0.0072
3805.00,0.0073
3804.00,0.0074
3803.00,0.0075
3802.00,0.0075
3801.00,0.0075
3800.00,0.0075
3799.00,0.0075
3798.00,0.0075
3797.00,0.0074
3796.00,0.0073
3795.00,0.0072
3794.00,0.0071
3793.00,0.0070
3792.00,0.0070
3791.00,0.0070
3790.00,0.0069
3789.00,0.0069
3788.00,0.0069
3787.00,0.0069
3786.00,0.0069
3785.00,0.0069
3784.00,0.0070
3783.00,0.0070
3782.00,0.0071
3781.00,0.0071
3780.00,0.0071
3779.00,0.0070
3778.00,0.0069
3777.00,0.0069
3776.00,0.0069
3775.00,0.0070
3774.00,0.0070
3773.00,0.0070
3772.00,0.0070
3771.00,0.0071
3770.00,0.0071
3769.00,0.0072
3768.00,0.0072
3767.00,0.0073
3766.00,0.0073
3765.00,0.0072
3764.00,0.0072
3763.00,0.0072
3762.00,0.0073
3761.00,0.0074
3760.00,0.0074
3759.00,0.0074
3758.00,0.0074
3757.00,0.0074
3756.00,0.0075
3755.00,0.0075
3754.00,0.0076
3753.00,0.0076
3752.00,0.0077
3751.00,0.0078
3750.00,0.0079
3749.00,0.0081
3748.00,0.0082
3747.00,0.0082
3746.00,0.0083
3745.00,0.0083
3744.00,0.0082
3743.00,0.0081
3742.00,0.0081
3741.00,0.0080
3740.00,0.0080
3739.00,0.0080
3738.00,0.0081
3737.00,0.0082
3736.00,0.0082
3735.00,0.0081
3734.00,0.0081
3733.00,0.0081
3732.00,0.0081
3731.00,0.0081
3730.00,0.0080
3729.00,0.0079
3728.00,0.0079
3727.00,0.0080
3726.00,0.0079
3725.00,0.0079
3724.00,0.0079
3723.00,0.0078
3722.00,0.0078
3721.00,0.0077
3720.00,0.0077
3719.00,0.0077
3718.00,0.0076
3717.00,0.0076
3716.00,0.0076
3715.00,0.0077
3714.00,0.0078
3713.00,0.0080
3712.00,0.0082
3711.00,0.0083
3710.00,0.0083
3709.00,0.0083
3708.00,0.0083
3707.00,0.0083
3706.00,0.0083
3705.00,0.0083
3704.00,0.0083
3703.00,0.0083
3702.00,0.0083
3701.00,0.0082
3700.00,0.0082
3699.00,0.0083
3698.00,0.0083
3697.00,0.0084
3696.00,0.0084
3695.00,0.0085
3694.00,0.0087
3693.00,0.0088
3692.00,0.0089
3691.00,0.0090
3690.00,0.0091
3689.00,0.0092
3688.00,0.0093
3687.00,0.0094
3686.00,0.0095
3685.00,0.0095
3684.00,0.0096
3683.00,0.0096
3682.00,0.0097
3681.00,0.0098
3680.00,0.0099
3679.00,0.0100
3678.00,0.0101
3677.00,0.0104
3676.00,0.0107
3675.00,0.0109
3674.00,0.0112
3673.00,0.0114
3672.00,0.0118
3671.00,0.0121
3670.00,0.0122
3669.00,0.0122
3668.00,0.0122
3667.00,0.0123
3666.00,0.0125
3665.00,0.0126
3664.00,0.0126
3663.00,0.0127
3662.00,0.0128
3661.00,0.0129
3660.00,0.0131
3659.00,0.0134
3658.00,0.0137
3657.00,0.0141
3656.00,0.0144
3655.00,0.0147
3654.00,0.0151
3653.00,0.0155
3652.00,0.0159
3651.00,0.0164
3650.00,0.0168
3649.00,0.0171
3648.00,0.0175
3647.00,0.0178
3646.00,0.0181
3645.00,0.0183
3644.00,0.0186
3643.00,0.0188
3642.00,0.0189
3641.00,0.0191
3640.00,0.0194
3639.00,0.0197
3638.00,0.0200
3637.00,0.0204
3636.00,0.0208
3635.00,0.0212
3634.00,0.0215
3633.00,0.0218
3632.00,0.0222
3631.00,0.0227
3630.00,0.0233
3629.00,0.0239
3628.00,0.0243
3627.00,0.0248
3626.00,0.0253
3625.00,0.0258
3624.00,0.0262
3623.00,0.0265
3622.00,0.0268
3621.00,0.0272
3620.00,0.0275
3619.00,0.0279
3618.00,0.0284
3617.00,0.0289
3616.00,0.0294
3615.00,0.0300
3614.00,0.0304
3613.00,0.0308
3612.00,0.0312
3611.00,0.0316
3610.00,0.0321
3609.00,0.0325
3608.00,0.0329
3607.00,0.0332
3606.00,0.0336
3605.00,0.0340
3604.00,0.0344
3603.00,0.0348
3602.00,0.0351
3601.00,0.0355
3600.00,0.0358
3599.00,0.0362
3598.00,0.0367
3597.00,0.0371
3596.00,0.0375
3595.00,0.0379
3594.00,0.0383
3593.00,0.0388
3592.00,0.0392
3591.00,0.0397
3590.00,0.0402
3589.00,0.0407
3588.00,0.0412
3587.00,0.0416
3586.00,0.0421
3585.00,0.0426
3584.00,0.0430
3583.00,0.0434
3582.00,0.0437
3581.00,0.0440
3580.00,0.0443
3579.00,0.0446
3578.00,0.0450
3577.00,0.0454
3576.00,0.0458
3575.00,0.0462
3574.00,0.0467
3573.00,0.0471
3572.00,0.0476
3571.00,0.0480
3570.00,0.0485
3569.00,0.0490
3568.00,0.0494
3567.00,0.0498
3566.00,0.0503
3565.00,0.0508
3564.00,0.0514
3563.00,0.0519
3562.00,0.0523
3561.00,0.0526
3560.00,0.0530
3559.00,0.0533
3558.00,0.0536
3557.00,0.0540
3556.00,0.0544
3555.00,0.0548
3554.00,0.0552
3553.00,0.0556
3552.00,0.0561
3551.00,0.0565
3550.00,0.0570
3549.00,0.0575
3548.00,0.0579
3547.00,0.0583
3546.00,0.0587
3545.00,0.0591
3544.00,0.0595
3543.00,0.0599
3542.00,0.0603
3541.00,0.0607
3540.00,0.0611
3539.00,0.0615
3538.00,0.0619
3537.00,0.0623
3536.00,0.0627
3535.00,0.0631
3534.00,0.0635
3533.00,0.0638
3532.00,0.0642
3531.00,0.0645
3530.00,0.0649
3529.00,0.0653
3528.00,0.0658
3527.00,0.0663
3526.00,0.0667
3525.00,0.0672
3524.00,0.0676
3523.00,0.0679
3522.00,0.0683
3521.00,0.0686
3520.00,0.0690
3519.00,0.0693
3518.00,0.0696
3517.00,0.0700
3516.00,0.0704
3515.00,0.0708
3514.00,0.0712
3513.00,0.0716
3512.00,0.0720
3511.00,0.0724
3510.00,0.0727
3509.00,0.0731
3508.00,0.0735
3507.00,0.0739
3506.00,0.0744
3505.00,0.0748
3504.00,0.0752
3503.00,0.0755
3502.00,0.0758
3501.00,0.0762
3500.00,0.0765
3499.00,0.0769
3498.00,0.0773
3497.00,0.0777
3496.00,0.0781
3495.00,0.0784
3494.00,0.0788
3493.00,0.0792
3492.00,0.0795
3491.00,0.0799
3490.00,0.0803
3489.00,0.0807
3488.00,0.0810
3487.00,0.0814
3486.00,0.0817
3485.00,0.0821
3484.00,0.0824
3483.00,0.0828
3482.00,0.0832
3481.00,0.0835
3480.00,0.0839
3479.00,0.0842
3478.00,0.0846
3477.00,0.0850
3476.00,0.0853
3475.00,0.0857
3474.00,0.0860
3473.00,0.0863
3472.00,0.0867
3471.00,0.0871
3470.00,0.0875
3469.00,0.0878
3468.00,0.0882
3467.00,0.0886
3466.00,0.0889
3465.00,0.0893
3464.00,0.0897
3463.00,0.0900
3462.00,0.0903
3461.00,0.0907
3460.00,0.0910
3459.00,0.0913
3458.00,0.0916
3457.00,0.0919
3456.00,0.0923
3455.00,0.0926
3454.00,0.0930
3453.00,0.0933
3452.00,0.0936
3451.00,0.0939
3450.00,0.0942
3449.00,0.0946
3448.00,0.0949
3447.00,0.0952
3446.00,0.0956
3445.00,0.0959
3444.00,0.0962
3443.00,0.0965
3442.00,0.0968
3441.00,0.0971
3440.00,0.0975
3439.00,0.0979
3438.00,0.0982
3437.00,0.0986
3436.00,0.0989
3435.00,0.0992
3434.00,0.0994
3433.00,0.0997
3432.00,0.1000
3431.00,0.1003
3430.00,0.1006
3429.00,0.1009
3428.00,0.1012
3427.00,0.1015
3426.00,0.1017
3425.00,0.1020
3424.00,0.1022
3423.00,0.1025
3422.00,0.1028
3421.00,0.1031
3420.00,0.1033
3419.00,0.1036
3418.00,0.1039
3417.00,0.1042
3416.00,0.1045
3415.00,0.1047
3414.00,0.1050
3413.00,0.1052
3412.00,0.1055
3411.00,0.1057
3410.00,0.1060
3409.00,0.1062
3408.00,0.1064
3407.00,0.1066
3406.00,0.1068
3405.00,0.1070
3404.00,0.1073
3403.00,0.1076
3402.00,0.1079
3401.00,0.1082
3400.00,0.1083
3399.00,0.1085
3398.00,0.1086
3397.00,0.1088
3396.00,0.1089
3395.00,0.1091
3394.00,0.1093
3393.00,0.1095
3392.00,0.1096
3391.00,0.1098
3390.00,0.1099
3389.00,0.1100
3388.00,0.1101
3387.00,0.1102
3386.00,0.1104
3385.00,0.1106
3384.00,0.1108
3383.00,0.1109
3382.00,0.1111
3381.00,0.1112
3380.00,0.1113
3379.00,0.1114
3378.00,0.1115
3377.00,0.1116
3376.00,0.1116
3375.00,0.1117
3374.00,0.1118
3373.00,0.1119
3372.00,0.1120
3371.00,0.1122
3370.00,0.1123
3369.00,0.1124
3368.00,0.1124
3367.00,0.1124
3366.00,0.1125
3365.00,0.1125
3364.00,0.1126
3363.00,0.1126
3362.00,0.1127
3361.00,0.1127
3360.00,0.1128
3359.00,0.1128
3358.00,0.1129
3357.00,0.1129
3356.00,0.1129
3355.00,0.1130
3354.00,0.1131
3353.00,0.1132
3352.00,0.1132
3351.00,0.1132
3350.00,0.1132
3349.00,0.1131
3348.00,0.1131
3347.00,0.1131
3346.00,0.1131
3345.00,0.1132
3344.00,0.1132
3343.00,0.1132
3342.00,0.1133
3341.00,0.1133
3340.00,0.1133
3339.00,0.1133
3338.00,0.1132
3337.00,0.1132
3336.00,0.1131
3335.00,0.1131
3334.00,0.1131
3333.00,0.1131
3332.00,0.1131
3331.00,0.1131
3330.00,0.1131
3329.00,0.1131
3328.00,0.1130
3327.00,0.1130
3326.00,0.1130
3325.00,0.1130
3324.00,0.1130
3323.00,0.1129
3322.00,0.1129
3321.00,0.1129
3320.00,0.1128
3319.00,0.1128
3318.00,0.1128
3317.00,0.1127
3316.00,0.1127
3315.00,0.1127
3314.00,0.1127
3313.00,0.1127
3312.00,0.1127
3311.00,0.1127
3310.00,0.1127
3309.00,0.1126
3308.00,0.1126
3307.00,0.1125
3306.00,0.1125
3305.00,0.1125
3304.00,0.1124
3303.00,0.1124
3302.00,0.1124
3301.00,0.1123
3300.00,0.1123
3299.00,0.1122
3298.00,0.1121
3297.00,0.1121
3296.00,0.1120
3295.00,0.1120
3294.00,0.1120
3293.00,0.1119
3292.00,0.1119
3291.00,0.1119
3290.00,0.1118
3289.00,0.1118
3288.00,0.1117
3287.00,0.1116
3286.00,0.1115
3285.00,0.1114
3284.00,0.1112
3283.00,0.1111
3282.00,0.1111
3281.00,0.1110
3280.00,0.1109
3279.00,0.1108
3278.00,0.1106
3277.00,0.1105
3276.00,0.1104
3275.00,0.1102
3274.00,0.1100
3273.00,0.1099
3272.00,0.1097
3271.00,0.1095
3270.00,0.1093
3269.00,0.1092
3268.00,0.1090
3267.00,0.1088
3266.00,0.1086
3265.00,0.1083
3264.00,0.1081
3263.00,0.1079
3262.00,0.1077
3261.00,0.1075
3260.00,0.1072
3259.00,0.1070
3258.00,0.1068
3257.00,0.1065
3256.00,0.1062
3255.00,0.1060
3254.00,0.1057
3253.00,0.1055
3252.00,0.1052
3251.00,0.1050
3250.00,0.1047
3249.00,0.1044
3248.00,0.1042
3247.00,0.1039
3246.00,0.1036
3245.00,0.1034
3244.00,0.1031
3243.00,0.1028
3242.00,0.1026
3241.00,0.1023
3240.00,0.1020
3239.00,0.1018
3238.00,0.1015
3237.00,0.1012
3236.00,0.1009
3235.00,0.1006
3234.00,0.1003
3233.00,0.1000
3232.00,0.0997
3231.00,0.0994
3230.00,0.0991
3229.00,0.0988
3228.00,0.0986
3227.00,0.0983
3226.00,0.0980
3225.00,0.0977
3224.00,0.0974
3223.00,0.0971
3222.00,0.0968
3221.00,0.0964
3220.00,0.0961
3219.00,0.0958
3218.00,0.0955
3217.00,0.0952
3216.00,0.0949
3215.00,0.0946
3214.00,0.0943
3213.00,0.0940
3212.00,0.0936
3211.00,0.0933
3210.00,0.0929
3209.00,0.0925
3208.00,0.0922
3207.00,0.0918
3206.00,0.0915
3205.00,0.0912
3204.00,0.0908
3203.00,0.0905
3202.00,0.0902
3201.00,0.0898
3200.00,0.0894
3199.00,0.0891
3198.00,0.0887
3197.00,0.0884
3196.00,0.0880
3195.00,0.0876
3194.00,0.0872
3193.00,0.0868
3192.00,0.0865
3191.00,0.0861
3190.00,0.0857
3189.00,0.0854
3188.00,0.0850
3187.00,0.0846
3186.00,0.0842
3185.00,0.0838
3184.00,0.0834
3183.00,0.0830
3182.00,0.0826
3181.00,0.0822
3180.00,0.0818
3179.00,0.0814
3178.00,0.0811
3177.00,0.0807
3176.00,0.0803
3175.00,0.0799
3174.00,0.0796
3173.00,0.0792
3172.00,0.0788
3171.00,0.0783
3170.00,0.0779
3169.00,0.0775
3168.00,0.0770
3167.00,0.0766
3166.00,0.0762
3165.00,0.0758
3164.00,0.0754
3163.00,0.0750
3162.00,0.0746
3161.00,0.0742
3160.00,0.0738
3159.00,0.0734
3158.00,0.0730
3157.00,0.0726
3156.00,0.0721
3155.00,0.0717
3154.00,0.0714
3153.00,0.0710
3152.00,0.0706
3151.00,0.0703
3150.00,0.0699
3149.00,0.0695
3148.00,0.0691
3147.00,0.0688
3146.00,0.0684
3145.00,0.0681
3144.00,0.0677
3143.00,0.0673
3142.00,0.0668
3141.00,0.0664
3140.00,0.0661
3139.00,0.0657
3138.00,0.0654
3137.00,0.0650
3136.00,0.0647
3135.00,0.0643
3134.00,0.0639
3133.00,0.0636
3132.00,0.0632
3131.00,0.0629
3130.00,0.0626
3129.00,0.0623
3128.00,0.0620
3127.00,0.0617
3126.00,0.0614
3125.00,0.0610
3124.00,0.0607
3123.00,0.0604
3122.00,0.0601
3121.00,0.0598
3120.00,0.0595
3119.00,0.0592
3118.00,0.0589
3117.00,0.0586
3116.00,0.0583
3115.00,0.0580
3114.00,0.0577
3113.00,0.0574
3112.00,0.0572
3111.00,0.0569
3110.00,0.0567
3109.00,0.0565
3108.00,0.0562
3107.00,0.0560
3106.00,0.0557
3105.00,0.0554
3104.00,0.0552
3103.00,0.0550
3102.00,0.0548
3101.00,0.0546
3100.00,0.0544
3099.00,0.0542
3098.00,0.0540
3097.00,0.0537
3096.00,0.0535
3095.00,0.0532
3094.00,0.0530
3093.00,0.0527
3092.00,0.0525
3091.00,0.0523
3090.00,0.0521
3089.00,0.0519
3088.00,0.0517
3087.00,0.0515
3086.00,0.0513
3085.00,0.0511
3084.00,0.0509
3083.00,0.0507
3082.00,0.0506
3081.00,0.0504
3080.00,0.0502
3079.00,0.0501
3078.00,0.0499
3077.00,0.0497
3076.00,0.0495
3075.00,0.0493
3074.00,0.0491
3073.00,0.0489
3072.00,0.0487
3071.00,0.0485
3070.00,0.0483
3069.00,0.0480
3068.00,0.0478
3067.00,0.0476
3066.00,0.0474
3065.00,0.0473
3064.00,0.0471
3063.00,0.0469
3062.00,0.0467
3061.00,0.0464
3060.00,0.0461
3059.00,0.0459
3058.00,0.0457
3057.00,0.0454
3056.00,0.0452
3055.00,0.0450
3054.00,0.0447
3053.00,0.0445
3052.00,0.0443
3051.00,0.0441
3050.00,0.0439
3049.00,0.0436
3048.00,0.0434
3047.00,0.0431
3046.00,0.0429
3045.00,0.0427
3044.00,0.0425
3043.00,0.0422
3042.00,0.0420
3041.00,0.0418
3040.00,0.0416
3039.00,0.0414
3038.00,0.0412
3037.00,0.0409
3036.00,0.0407
3035.00,0.0405
3034.00,0.0403
3033.00,0.0401
3032.00,0.0399
3031.00,0.0397
3030.00,0.0396
3029.00,0.0394
3028.00,0.0392
3027.00,0.0390
3026.00,0.0388
3025.00,0.0386
3024.00,0.0384
3023.00,0.0382
3022.00,0.0380
3021.00,0.0379
3020.00,0.0378
3019.00,0.0376
3018.00,0.0375
3017.00,0.0374
3016.00,0.0373
3015.00,0.0371
3014.00,0.0370
3013.00,0.0369
3012.00,0.0368
3011.00,0.0367
3010.00,0.0365
3009.00,0.0364
3008.00,0.0362
3007.00,0.0361
3006.00,0.0360
3005.00,0.0359
3004.00,0.0358
3003.00,0.0357
3002.00,0.0356
3001.00,0.0355
3000.00,0.0354
2999.00,0.0354
2998.00,0.0354
2997.00,0.0353
2996.00,0.0352
2995.00,0.0352
2994.00,0.0352
2993.00,0.0353
2992.00,0.0353
2991.00,0.0354
2990.00,0.0354
2989.00,0.0355
2988.00,0.0356
2987.00,0.0358
2986.00,0.0359
2985.00,0.0360
2984.00,0.0361
2983.00,0.0362
2982.00,0.0363
2981.00,0.0364
2980.00,0.0365
2979.00,0.0367
2978.00,0.0369
2977.00,0.0371
2976.00,0.0372
2975.00,0.0374
2974.00,0.0375
2973.00,0.0377
2972.00,0.0379
2971.00,0.0381
2970.00,0.0382
2969.00,0.0384
2968.00,0.0385
2967.00,0.0386
2966.00,0.0388
2965.00,0.0389
2964.00,0.0390
2963.00,0.0391
2962.00,0.0392
2961.00,0.0393
2960.00,0.0393
2959.00,0.0393
2958.00,0.0393
2957.00,0.0392
2956.00,0.0392
2955.00,0.0391
2954.00,0.0390
2953.00,0.0388
2952.00,0.0388
2951.00,0.0387
2950.00,0.0387
2949.00,0.0387
2948.00,0.0387
2947.00,0.0387
2946.00,0.0387
2945.00,0.0387
2944.00,0.0388
2943.00,0.0389
2942.00,0.0390
2941.00,0.0391
2940.00,0.0392
2939.00,0.0394
2938.00,0.0395
2937.00,0.0396
2936.00,0.0397
2935.00,0.0398
2934.00,0.0399
2933.00,0.0399
2932.00,0.0399
2931.00,0.0400
2930.00,0.0400
2929.00,0.0400
2928.00,0.0401
2927.00,0.0401
2926.00,0.0401
2925.00,0.0401
2924.00,0.0400
2923.00,0.0399
2922.00,0.0397
2921.00,0.0395
2920.00,0.0393
2919.00,0.0391
2918.00,0.0388
2917.00,0.0385
2916.00,0.0381
2915.00,0.0378
2914.00,0.0374
2913.00,0.0371
2912.00,0.0368
2911.00,0.0365
2910.00,0.0362
2909.00,0.0359
2908.00,0.0356
2907.00,0.0354
2906.00,0.0352
2905.00,0.0350
2904.00,0.0348
2903.00,0.0346
2902.00,0.0344
2901.00,0.0342
2900.00,0.0340
2899.00,0.0338
2898.00,0.0336
2897.00,0.0334
2896.00,0.0332
2895.00,0.0330
2894.00,0.0328
2893.00,0.0326
2892.00,0.0324
2891.00,0.0323
2890.00,0.0321
2889.00,0.0320
2888.00,0.0318
2887.00,0.0316
2886.00,0.0314
2885.00,0.0313
2884.00,0.0311
2883.00,0.0310
2882.00,0.0309
2881.00,0.0308
2880.00,0.0308
2879.00,0.0307
2878.00,0.0306
2877.00,0.0305
2876.00,0.0304
2875.00,0.0302
2874.00,0.0301
2873.00,0.0300
2872.00,0.0298
2871.00,0.0297
2870.00,0.0295
2869.00,0.0293
2868.00,0.0290
2867.00,0.0288
2866.00,0.0286
2865.00,0.0284
2864.00,0.0283
2863.00,0.0282
2862.00,0.0281
2861.00,0.0280
2860.00,0.0280
2859.00,0.0279
2858.00,0.0279
2857.00,0.0279
2856.00,0.0279
2855.00,0.0279
2854.00,0.0279
2853.00,0.0278
2852.00,0.0277
2851.00,0.0275
2850.00,0.0273
2849.00,0.0270
2848.00,0.0266
2847.00,0.0262
2846.00,0.0258
2845.00,0.0254
2844.00,0.0250
2843.00,0.0247
2842.00,0.0245
2841.00,0.0242
2840.00,0.0240
2839.00,0.0237
2838.00,0.0235
2837.00,0.0233
2836.00,0.0232
2835.00,0.0231
2834.00,0.0230
2833.00,0.0228
2832.00,0.0227
2831.00,0.0225
2830.00,0.0224
2829.00,0.0223
2828.00,0.0222
2827.00,0.0221
2826.00,0.0220
2825.00,0.0219
2824.00,0.0218
2823.00,0.0217
2822.00,0.0216
2821.00,0.0215
2820.00,0.0214
2819.00,0.0213
2818.00,0.0212
2817.00,0.0212
2816.00,0.0211
2815.00,0.0210
2814.00,0.0209
2813.00,0.0208
2812.00,0.0207
2811.00,0.0206
2810.00,0.0205
2809.00,0.0204
2808.00,0.0203
2807.00,0.0203
2806.00,0.0202
2805.00,0.0201
2804.00,0.0200
2803.00,0.0200
2802.00,0.0199
2801.00,0.0198
2800.00,0.0197
2799.00,0.0196
2798.00,0.0195
2797.00,0.0195
2796.00,0.0194
2795.00,0.0193
2794.00,0.0193
2793.00,0.0192
2792.00,0.0191
2791.00,0.0190
2790.00,0.0190
2789.00,0.0190
2788.00,0.0190
2787.00,0.0189
2786.00,0.0189
2785.00,0.0188
2784.00,0.0187
2783.00,0.0187
2782.00,0.0186
2781.00,0.0185
2780.00,0.0185
2779.00,0.0184
2778.00,0.0183
2777.00,0.0183
2776.00,0.0182
2775.00,0.0181
2774.00,0.0181
2773.00,0.0180
2772.00,0.0180
2771.00,0.0179
2770.00,0.0178
2769.00,0.0178
2768.00,0.0178
2767.00,0.0177
2766.00,0.0177
2765.00,0.0176
2764.00,0.0176
2763.00,0.0175
2762.00,0.0175
2761.00,0.0174
2760.00,0.0174
2759.00,0.0173
2758.00,0.0173
2757.00,0.0173
2756.00,0.0172
2755.00,0.0172
2754.00,0.0171
2753.00,0.0171
2752.00,0.0171
2751.00,0.0170
2750.00,0.0170
2749.00,0.0169
2748.00,0.0169
2747.00,0.0168
2746.00,0.0168
2745.00,0.0167
2744.00,0.0167
2743.00,0.0166
2742.00,0.0166
2741.00,0.0165
2740.00,0.0165
2739.00,0.0165
2738.00,0.0165
2737.00,0.0165
2736.00,0.0164
2735.00,0.0164
2734.00,0.0164
2733.00,0.0163
2732.00,0.0163
2731.00,0.0163
2730.00,0.0162
2729.00,0.0161
2728.00,0.0161
2727.00,0.0160
2726.00,0.0160
2725.00,0.0159
2724.00,0.0159
2723.00,0.0159
2722.00,0.0158
2721.00,0.0158
2720.00,0.0158
2719.00,0.0157
2718.00,0.0157
2717.00,0.0157
2716.00,0.0156
2715.00,0.0156
2714.00,0.0155
2713.00,0.0155
2712.00,0.0154
2711.00,0.0154
2710.00,0.0154
2709.00,0.0153
2708.00,0.0153
2707.00,0.0153
2706.00,0.0153
2705.00,0.0153
2704.00,0.0153
2703.00,0.0153
2702.00,0.0152
2701.00,0.0151
2700.00,0.0151
2699.00,0.0151
2698.00,0.0150
2697.00,0.0150
2696.00,0.0149
2695.00,0.0149
2694.00,0.0149
2693.00,0.0148
2692.00,0.0148
2691.00,0.0148
2690.00,0.0147
2689.00,0.0147
2688.00,0.0147
2687.00,0.0147
2686.00,0.0147
2685.00,0.0146
2684.00,0.0146
2683.00,0.0146
2682.00,0.0146
2681.00,0.0146
2680.00,0.0145
2679.00,0.0145
2678.00,0.0145
2677.00,0.0144
2676.00,0.0144
2675.00,0.0144
2674.00,0.0143
2673.00,0.0143
2672.00,0.0143
2671.00,0.0143
2670.00,0.0143
2669.00,0.0143
2668.00,0.0142
2667.00,0.0142
2666.00,0.0142
2665.00,0.0142
2664.00,0.0142
2663.00,0.0142
2662.00,0.0142
2661.00,0.0143
2660.00,0.0143
2659.00,0.0143
2658.00,0.0143
2657.00,0.0143
2656.00,0.0143
2655.00,0.0142
2654.00,0.0142
2653.00,0.0142
2652.00,0.0142
2651.00,0.0142
2650.00,0.0141
2649.00,0.0141
2648.00,0.0141
2647.00,0.0140
2646.00,0.0140
2645.00,0.0140
2644.00,0.0140
2643.00,0.0139
2642.00,0.0139
2641.00,0.0138
2640.00,0.0138
2639.00,0.0137
2638.00,0.0136
2637.00,0.0136
2636.00,0.0136
2635.00,0.0135
2634.00,0.0135
2633.00,0.0135
2632.00,0.0134
2631.00,0.0134
2630.00,0.0134
2629.00,0.0133
2628.00,0.0133
2627.00,0.0132
2626.00,0.0132
2625.00,0.0132
2624.00,0.0132
2623.00,0.0131
2622.00,0.0131
2621.00,0.0130
2620.00,0.0130
2619.00,0.0130
2618.00,0.0130
2617.00,0.0129
2616.00,0.0129
2615.00,0.0129
2614.00,0.0128
2613.00,0.0128
2612.00,0.0128
2611.00,0.0127
2610.00,0.0126
2609.00,0.0126
2608.00,0.0125
2607.00,0.0125
2606.00,0.0125
2605.00,0.0125
2604.00,0.0125
2603.00,0.0125
2602.00,0.0124
2601.00,0.0124
2600.00,0.0124
2599.00,0.0124
2598.00,0.0123
2597.00,0.0123
2596.00,0.0123
2595.00,0.0122
2594.00,0.0122
2593.00,0.0122
2592.00,0.0121
2591.00,0.0120
2590.00,0.0119
2589.00,0.0119
2588.00,0.0118
2587.00,0.0117
2586.00,0.0117
2585.00,0.0118
2584.00,0.0118
2583.00,0.0118
2582.00,0.0118
2581.00,0.0118
2580.00,0.0119
2579.00,0.0119
2578.00,0.0119
2577.00,0.0119
2576.00,0.0119
2575.00,0.0118
2574.00,0.0117
2573.00,0.0116
2572.00,0.0115
2571.00,0.0115
2570.00,0.0115
2569.00,0.0115
2568.00,0.0115
2567.00,0.0114
2566.00,0.0114
2565.00,0.0114
2564.00,0.0114
2563.00,0.0114
2562.00,0.0114
2561.00,0.0115
2560.00,0.0115
2559.00,0.0115
2558.00,0.0114
2557.00,0.0113
2556.00,0.0112
2555.00,0.0111
2554.00,0.0111
2553.00,0.0112
2552.00,0.0112
2551.00,0.0112
2550.00,0.0112
2549.00,0.0112
2548.00,0.0111
2547.00,0.0111
2546.00,0.0111
2545.00,0.0111
2544.00,0.0111
2543.00,0.0111
2542.00,0.0111
2541.00,0.0111
2540.00,0.0111
2539.00,0.0111
2538.00,0.0110
2537.00,0.0109
2536.00,0.0108
2535.00,0.0108
2534.00,0.0108
2533.00,0.0108
2532.00,0.0109
2531.00,0.0108
2530.00,0.0108
2529.00,0.0108
2528.00,0.0108
2527.00,0.0109
2526.00,0.0109
2525.00,0.0109
2524.00,0.0109
2523.00,0.0108
2522.00,0.0107
2521.00,0.0107
2520.00,0.0106
2519.00,0.0106
2518.00,0.0106
2517.00,0.0107
2516.00,0.0107
2515.00,0.0107
2514.00,0.0106
2513.00,0.0106
2512.00,0.0107
2511.00,0.0107
2510.00,0.0107
2509.00,0.0106
2508.00,0.0106
2507.00,0.0106
2506.00,0.0105
2505.00,0.0105
2504.00,0.0105
2503.00,0.0105
2502.00,0.0105
2501.00,0.0105
2500.00,0.0105
2499.00,0.0105
2498.00,0.0105
2497.00,0.0105
2496.00,0.0105
2495.00,0.0105
2494.00,0.0105
2493.00,0.0105
2492.00,0.0105
2491.00,0.0106
2490.00,0.0106
2489.00,0.0106
2488.00,0.0106
2487.00,0.0106
2486.00,0.0106
2485.00,0.0105
2484.00,0.0105
2483.00,0.0105
2482.00,0.0105
2481.00,0.0105
2480.00,0.0105
2479.00,0.0104
2478.00,0.0103
2477.00,0.0103
2476.00,0.0102
2475.00,0.0103
2474.00,0.0103
2473.00,0.0103
2472.00,0.0103
2471.00,0.0102
2470.00,0.0102
2469.00,0.0102
2468.00,0.0102
2467.00,0.0102
2466.00,0.0102
2465.00,0.0102
2464.00,0.0102
2463.00,0.0102
2462.00,0.0102
2461.00,0.0102
2460.00,0.0102
2459.00,0.0102
2458.00,0.0102
2457.00,0.0103
2456.00,0.0103
2455.00,0.0103
2454.00,0.0103
2453.00,0.0103
2452.00,0.0103
2451.00,0.0103
2450.00,0.0104
2449.00,0.0104
2448.00,0.0104
2447.00,0.0103
2446.00,0.0102
2445.00,0.0102
2444.00,0.0102
2443.00,0.0102
2442.00,0.0102
2441.00,0.0102
2440.00,0.0102
2439.00,0.0102
2438.00,0.0102
2437.00,0.0101
2436.00,0.0101
2435.00,0.0100
2434.00,0.0100
2433.00,0.0100
2432.00,0.0100
2431.00,0.0100
2430.00,0.0100
2429.00,0.0100
2428.00,0.0100
2427.00,0.0100
2426.00,0.0100
2425.00,0.0100
2424.00,0.0100
2423.00,0.0100
2422.00,0.0099
2421.00,0.0098
2420.00,0.0098
2419.00,0.0098
2418.00,0.0098
2417.00,0.0098
2416.00,0.0098
2415.00,0.0097
2414.00,0.0097
2413.00,0.0097
2412.00,0.0097
2411.00,0.0098
2410.00,0.0098
2409.00,0.0098
2408.00,0.0097
2407.00,0.0097
2406.00,0.0097
2405.00,0.0097
2404.00,0.0097
2403.00,0.0096
2402.00,0.0096
2401.00,0.0096
2400.00,0.0097
2399.00,0.0097
2398.00,0.0097
2397.00,0.0097
2396.00,0.0097
2395.00,0.0097
2394.00,0.0098
2393.00,0.0098
2392.00,0.0098
2391.00,0.0097
2390.00,0.0097
2389.00,0.0097
2388.00,0.0097
2387.00,0.0097
2386.00,0.0097
2385.00,0.0097
2384.00,0.0097
2383.00,0.0097
2382.00,0.0097
2381.00,0.0096
2380.00,0.0096
2379.00,0.0096
2378.00,0.0095
2377.00,0.0095
2376.00,0.0095
2375.00,0.0095
2374.00,0.0096
2373.00,0.0097
2372.00,0.0097
2371.00,0.0096
2370.00,0.0095
2369.00,0.0094
2368.00,0.0094
2367.00,0.0094
2366.00,0.0094
2365.00,0.0095
2364.00,0.0097
2363.00,0.0099
2362.00,0.0100
2361.00,0.0100
2360.00,0.0100
2359.00,0.0100
2358.00,0.0099
2357.00,0.0099
2356.00,0.0100
2355.00,0.0100
2354.00,0.0101
2353.00,0.0101
2352.00,0.0101
2351.00,0.0100
2350.00,0.0099
2349.00,0.0100
2348.00,0.0102
2347.00,0.0105
2346.00,0.0106
2345.00,0.0106
2344.00,0.0105
2343.00,0.0104
2342.00,0.0104
2341.00,0.0104
2340.00,0.0105
2339.00,0.0105
2338.00,0.0105
2337.00,0.0105
2336.00,0.0104
2335.00,0.0104
2334.00,0.0103
2333.00,0.0102
2332.00,0.0102
2331.00,0.0102
2330.00,0.0102
2329.00,0.0103
2328.00,0.0104
2327.00,0.0108
2326.00,0.0112
2325.00,0.0117
2324.00,0.0119
2323.00,0.0119
2322.00,0.0117
2321.00,0.0114
2320.00,0.0112
2319.00,0.0111
2318.00,0.0110
2317.00,0.0110
2316.00,0.0110
2315.00,0.0110
2314.00,0.0109
2313.00,0.0109
2312.00,0.0109
2311.00,0.0109
2310.00,0.0109
2309.00,0.0108
2308.00,0.0108
2307.00,0.0107
2306.00,0.0107
2305.00,0.0107
2304.00,0.0108
2303.00,0.0108
2302.00,0.0109
2301.00,0.0109
2300.00,0.0109
2299.00,0.0109
2298.00,0.0110
2297.00,0.0111
2296.00,0.0113
2295.00,0.0113
2294.00,0.0114
2293.00,0.0114
2292.00,0.0114
2291.00,0.0115
2290.00,0.0116
2289.00,0.0117
2288.00,0.0117
2287.00,0.0117
2286.00,0.0117
2285.00,0.0118
2284.00,0.0118
2283.00,0.0118
2282.00,0.0117
2281.00,0.0116
2280.00,0.0115
2279.00,0.0114
2278.00,0.0113
2277.00,0.0111
2276.00,0.0110
2275.00,0.0110
2274.00,0.0110
2273.00,0.0111
2272.00,0.0113
2271.00,0.0114
2270.00,0.0114
2269.00,0.0113
2268.00,0.0112
2267.00,0.0110
2266.00,0.0109
2265.00,0.0109
2264.00,0.0109
2263.00,0.0108
2262.00,0.0108
2261.00,0.0108
2260.00,0.0108
2259.00,0.0109
2258.00,0.0109
2257.00,0.0110
2256.00,0.0110
2255.00,0.0110
2254.00,0.0110
2253.00,0.0109
2252.00,0.0107
2251.00,0.0106
2250.00,0.0106
2249.00,0.0106
2248.00,0.0107
2247.00,0.0108
2246.00,0.0109
2245.00,0.0109
2244.00,0.0109
2243.00,0.0108
2242.00,0.0108
2241.00,0.0107
2240.00,0.0107
2239.00,0.0107
2238.00,0.0106
2237.00,0.0106
2236.00,0.0106
2235.00,0.0106
2234.00,0.0106
2233.00,0.0106
2232.00,0.0107
2231.00,0.0107
2230.00,0.0107
2229.00,0.0107
2228.00,0.0107
2227.00,0.0108
2226.00,0.0108
2225.00,0.0107
2224.00,0.0106
2223.00,0.0105
2222.00,0.0104
2221.00,0.0105
2220.00,0.0106
2219.00,0.0107
2218.00,0.0106
2217.00,0.0106
2216.00,0.0107
2215.00,0.0107
2214.00,0.0107
2213.00,0.0106
2212.00,0.0105
2211.00,0.0105
2210.00,0.0104
2209.00,0.0105
2208.00,0.0105
2207.00,0.0105
2206.00,0.0104
2205.00,0.0104
2204.00,0.0104
2203.00,0.0104
2202.00,0.0105
2201.00,0.0106
2200.00,0.0107
2199.00,0.0107
2198.00,0.0106
2197.00,0.0105
2196.00,0.0103
2195.00,0.0101
2194.00,0.0101
2193.00,0.0102
2192.00,0.0104
2191.00,0.0106
2190.00,0.0109
2189.00,0.0111
2188.00,0.0112
2187.00,0.0110
2186.00,0.0108
2185.00,0.0106
2184.00,0.0105
2183.00,0.0103
2182.00,0.0101
2181.00,0.0099
2180.00,0.0098
2179.00,0.0098
2178.00,0.0099
2177.00,0.0099
2176.00,0.0099
2175.00,0.0099
2174.00,0.0100
2173.00,0.0102
2172.00,0.0104
2171.00,0.0105
2170.00,0.0105
2169.00,0.0105
2168.00,0.0105
2167.00,0.0105
2166.00,0.0104
2165.00,0.0104
2164.00,0.0103
2163.00,0.0104
2162.00,0.0105
2161.00,0.0103
2160.00,0.0096
2159.00,0.0082
2158.00,0.0069
2157.00,0.0061
2156.00,0.0060
2155.00,0.0063
2154.00,0.0066
2153.00,0.0070
2152.00,0.0073
2151.00,0.0075
2150.00,0.0077
2149.00,0.0079
2148.00,0.0080
2147.00,0.0080
2146.00,0.0080
2145.00,0.0080
2144.00,0.0080
2143.00,0.0081
2142.00,0.0081
2141.00,0.0081
2140.00,0.0082
2139.00,0.0082
2138.00,0.0082
2137.00,0.0082
2136.00,0.0081
2135.00,0.0080
2134.00,0.0079
2133.00,0.0079
2132.00,0.0081
2131.00,0.0084
2130.00,0.0088
2129.00,0.0091
2128.00,0.0095
2127.00,0.0098
2126.00,0.0100
2125.00,0.0102
2124.00,0.0103
2123.00,0.0103
2122.00,0.0102
2121.00,0.0102
2120.00,0.0101
2119.00,0.0101
2118.00,0.0102
2117.00,0.0104
2116.00,0.0107
2115.00,0.0109
2114.00,0.0110
2113.00,0.0110
2112.00,0.0110
2111.00,0.0109
2110.00,0.0109
2109.00,0.0109
2108.00,0.0108
2107.00,0.0108
2106.00,0.0107
2105.00,0.0108
2104.00,0.0108
2103.00,0.0109
2102.00,0.0109
2101.00,0.0109
2100.00,0.0110
2099.00,0.0109
2098.00,0.0109
2097.00,0.0107
2096.00,0.0105
2095.00,0.0103
2094.00,0.0102
2093.00,0.0102
2092.00,0.0103
2091.00,0.0103
2090.00,0.0104
2089.00,0.0104
2088.00,0.0103
2087.00,0.0103
2086.00,0.0104
2085.00,0.0105
2084.00,0.0107
2083.00,0.0107
2082.00,0.0107
2081.00,0.0106
2080.00,0.0106
2079.00,0.0106
2078.00,0.0106
2077.00,0.0105
2076.00,0.0105
2075.00,0.0104
2074.00,0.0104
2073.00,0.0105
2072.00,0.0105
2071.00,0.0105
2070.00,0.0103
2069.00,0.0101
2068.00,0.0099
2067.00,0.0098
2066.00,0.0097
2065.00,0.0097
2064.00,0.0098
2063.00,0.0099
2062.00,0.0099
2061.00,0.0099
2060.00,0.0098
2059.00,0.0097
2058.00,0.0097
2057.00,0.0096
2056.00,0.0094
2055.00,0.0092
2054.00,0.0090
2053.00,0.0091
2052.00,0.0094
2051.00,0.0097
2050.00,0.0097
2049.00,0.0094
2048.00,0.0090
2047.00,0.0087
2046.00,0.0085
2045.00,0.0085
2044.00,0.0086
2043.00,0.0086
2042.00,0.0087
2041.00,0.0089
2040.00,0.0091
2039.00,0.0092
2038.00,0.0092
2037.00,0.0091
2036.00,0.0091
2035.00,0.0089
2034.00,0.0086
2033.00,0.0084
2032.00,0.0082
2031.00,0.0081
2030.00,0.0080
2029.00,0.0078
2028.00,0.0075
2027.00,0.0071
2026.00,0.0068
2025.00,0.0067
2024.00,0.0068
2023.00,0.0071
2022.00,0.0075
2021.00,0.0079
2020.00,0.0082
2019.00,0.0081
2018.00,0.0078
2017.00,0.0075
2016.00,0.0074
2015.00,0.0075
2014.00,0.0076
2013.00,0.0077
2012.00,0.0076
2011.00,0.0075
2010.00,0.0075
2009.00,0.0075
2008.00,0.0074
2007.00,0.0072
2006.00,0.0068
2005.00,0.0065
2004.00,0.0066
2003.00,0.0067
2002.00,0.0070
2001.00,0.0072
2000.00,0.0074
1999.00,0.0076
1998.00,0.0077
1997.00,0.0079
1996.00,0.0081
1995.00,0.0082
1994.00,0.0083
1993.00,0.0085
1992.00,0.0085
1991.00,0.0085
1990.00,0.0085
1989.00,0.0084
1988.00,0.0083
1987.00,0.0082
1986.00,0.0082
1985.00,0.0084
1984.00,0.0088
1983.00,0.0091
1982.00,0.0092
1981.00,0.0093
1980.00,0.0091
1979.00,0.0087
1978.00,0.0081
1977.00,0.0075
1976.00,0.0072
1975.00,0.0071
1974.00,0.0069
1973.00,0.0069
1972.00,0.0069
1971.00,0.0071
1970.00,0.0072
1969.00,0.0073
1968.00,0.0073
1967.00,0.0072
1966.00,0.0072
1965.00,0.0072
1964.00,0.0071
1963.00,0.0070
1962.00,0.0068
1961.00,0.0068
1960.00,0.0068
1959.00,0.0068
1958.00,0.0068
1957.00,0.0069
1956.00,0.0071
1955.00,0.0073
1954.00,0.0074
1953.00,0.0073
1952.00,0.0072
1951.00,0.0072
1950.00,0.0072
1949.00,0.0073
1948.00,0.0073
1947.00,0.0072
1946.00,0.0071
1945.00,0.0071
1944.00,0.0071
1943.00,0.0071
1942.00,0.0070
1941.00,0.0071
1940.00,0.0072
1939.00,0.0073
1938.00,0.0073
1937.00,0.0073
1936.00,0.0073
1935.00,0.0073
1934.00,0.0074
1933.00,0.0074
1932.00,0.0073
1931.00,0.0073
1930.00,0.0073
1929.00,0.0074
1928.00,0.0074
1927.00,0.0074
1926.00,0.0072
1925.00,0.0072
1924.00,0.0071
1923.00,0.0072
1922.00,0.0074
1921.00,0.0077
1920.00,0.0079
1919.00,0.0079
1918.00,0.0078
1917.00,0.0078
1916.00,0.0078
1915.00,0.0078
1914.00,0.0078
1913.00,0.0077
1912.00,0.0077
1911.00,0.0077
1910.00,0.0076
1909.00,0.0076
1908.00,0.0075
1907.00,0.0075
1906.00,0.0075
1905.00,0.0075
1904.00,0.0075
1903.00,0.0074
1902.00,0.0074
1901.00,0.0075
1900.00,0.0076
1899.00,0.0076
1898.00,0.0076
1897.00,0.0077
1896.00,0.0077
1895.00,0.0076
1894.00,0.0075
1893.00,0.0074
1892.00,0.0073
1891.00,0.0072
1890.00,0.0071
1889.00,0.0070
1888.00,0.0070
1887.00,0.0071
1886.00,0.0072
1885.00,0.0073
1884.00,0.0073
1883.00,0.0073
1882.00,0.0072
1881.00,0.0072
1880.00,0.0072
1879.00,0.0072
1878.00,0.0072
1877.00,0.0071
1876.00,0.0071
1875.00,0.0072
1874.00,0.0072
1873.00,0.0072
1872.00,0.0072
1871.00,0.0072
1870.00,0.0072
1869.00,0.0071
1868.00,0.0070
1867.00,0.0071
1866.00,0.0071
1865.00,0.0072
1864.00,0.0072
1863.00,0.0071
1862.00,0.0071
1861.00,0.0070
1860.00,0.0071
1859.00,0.0071
1858.00,0.0071
1857.00,0.0071
1856.00,0.0071
1855.00,0.0070
1854.00,0.0070
1853.00,0.0070
1852.00,0.0070
1851.00,0.0070
1850.00,0.0070
1849.00,0.0069
1848.00,0.0069
1847.00,0.0070
1846.00,0.0071
1845.00,0.0071
1844.00,0.0071
1843.00,0.0070
1842.00,0.0070
1841.00,0.0070
1840.00,0.0070
1839.00,0.0070
1838.00,0.0070
1837.00,0.0070
1836.00,0.0070
1835.00,0.0070
1834.00,0.0070
1833.00,0.0070
1832.00,0.0071
1831.00,0.0071
1830.00,0.0070
1829.00,0.0070
1828.00,0.0070
1827.00,0.0070
1826.00,0.0070
1825.00,0.0070
1824.00,0.0070
1823.00,0.0070
1822.00,0.0071
1821.00,0.0071
1820.00,0.0071
1819.00,0.0070
1818.00,0.0069
1817.00,0.0068
1816.00,0.0068
1815.00,0.0068
1814.00,0.0069
1813.00,0.0069
1812.00,0.0070
1811.00,0.0070
1810.00,0.0071
1809.00,0.0071
1808.00,0.0071
1807.00,0.0071
1806.00,0.0070
1805.00,0.0070
1804.00,0.0069
1803.00,0.0069
1802.00,0.0068
1801.00,0.0069
1800.00,0.0070
1799.00,0.0070
1798.00,0.0070
1797.00,0.0070
1796.00,0.0070
1795.00,0.0070
1794.00,0.0071
1793.00,0.0071
1792.00,0.0071
1791.00,0.0070
1790.00,0.0069
1789.00,0.0070
1788.00,0.0070
1787.00,0.0070
1786.00,0.0070
1785.00,0.0069
1784.00,0.0069
1783.00,0.0069
1782.00,0.0069
1781.00,0.0069
1780.00,0.0069
1779.00,0.0069
1778.00,0.0069
1777.00,0.0069
1776.00,0.0069
1775.00,0.0069
1774.00,0.0070
1773.00,0.0071
1772.00,0.0072
1771.00,0.0071
1770.00,0.0071
1769.00,0.0070
1768.00,0.0070
1767.00,0.0069
1766.00,0.0069
1765.00,0.0069
1764.00,0.0069
1763.00,0.0069
1762.00,0.0068
1761.00,0.0069
1760.00,0.0070
1759.00,0.0071
1758.00,0.0072
1757.00,0.0073
1756.00,0.0075
1755.00,0.0077
1754.00,0.0079
1753.00,0.0081
1752.00,0.0084
1751.00,0.0085
1750.00,0.0086
1749.00,0.0088
1748.00,0.0090
1747.00,0.0093
1746.00,0.0095
1745.00,0.0096
1744.00,0.0098
1743.00,0.0099
1742.00,0.0102
1741.00,0.0105
1740.00,0.0107
1739.00,0.0109
1738.00,0.0109
1737.00,0.0111
1736.00,0.0114
1735.00,0.0116
1734.00,0.0117
1733.00,0.0117
1732.00,0.0117
1731.00,0.0117
1730.00,0.0117
1729.00,0.0118
1728.00,0.0120
1727.00,0.0121
1726.00,0.0123
1725.00,0.0124
1724.00,0.0125
1723.00,0.0127
1722.00,0.0129
1721.00,0.0131
1720.00,0.0134
1719.00,0.0137
1718.00,0.0139
1717.00,0.0142
1716.00,0.0145
1715.00,0.0148
1714.00,0.0150
1713.00,0.0152
1712.00,0.0155
1711.00,0.0158
1710.00,0.0162
1709.00,0.0166
1708.00,0.0171
1707.00,0.0176
1706.00,0.0182
1705.00,0.0188
1704.00,0.0194
1703.00,0.0202
1702.00,0.0212
1701.00,0.0225
1700.00,0.0238
1699.00,0.0250
1698.00,0.0260
1697.00,0.0270
1696.00,0.0284
1695.00,0.0299
1694.00,0.0311
1693.00,0.0322
1692.00,0.0334
1691.00,0.0346
1690.00,0.0359
1689.00,0.0374
1688.00,0.0388
1687.00,0.0403
1686.00,0.0418
1685.00,0.0436
1684.00,0.0457
1683.00,0.0477
1682.00,0.0493
1681.00,0.0506
1680.00,0.0519
1679.00,0.0533
1678.00,0.0547
1677.00,0.0563
1676.00,0.0581
1675.00,0.0600
1674.00,0.0618
1673.00,0.0633
1672.00,0.0648
1671.00,0.0663
1670.00,0.0681
1669.00,0.0701
1668.00,0.0721
1667.00,0.0738
1666.00,0.0752
1665.00,0.0766
1664.00,0.0783
1663.00,0.0802
1662.00,0.0822
1661.00,0.0841
1660.00,0.0859
1659.00,0.0876
1658.00,0.0890
1657.00,0.0902
1656.00,0.0912
1655.00,0.0922
1654.00,0.0936
1653.00,0.0958
1652.00,0.0982
1651.00,0.0995
1650.00,0.0999
1649.00,0.1001
1648.00,0.1004
1647.00,0.1010
1646.00,0.1018
1645.00,0.1026
1644.00,0.1031
1643.00,0.1032
1642.00,0.1033
1641.00,0.1032
1640.00,0.1032
1639.00,0.1031
1638.00,0.1030
1637.00,0.1028
1636.00,0.1027
1635.00,0.1026
1634.00,0.1022
1633.00,0.1016
1632.00,0.1008
1631.00,0.0998
1630.00,0.0987
1629.00,0.0975
1628.00,0.0963
1627.00,0.0951
1626.00,0.0940
1625.00,0.0926
1624.00,0.0911
1623.00,0.0894
1622.00,0.0878
1621.00,0.0864
1620.00,0.0851
1619.00,0.0837
1618.00,0.0822
1617.00,0.0804
1616.00,0.0785
1615.00,0.0768
1614.00,0.0752
1613.00,0.0736
1612.00,0.0719
1611.00,0.0702
1610.00,0.0685
1609.00,0.0668
1608.00,0.0652
1607.00,0.0637
1606.00,0.0623
1605.00,0.0609
1604.00,0.0595
1603.00,0.0582
1602.00,0.0569
1601.00,0.0557
1600.00,0.0545
1599.00,0.0533
1598.00,0.0522
1597.00,0.0511
1596.00,0.0500
1595.00,0.0490
1594.00,0.0480
1593.00,0.0471
1592.00,0.0462
1591.00,0.0454
1590.00,0.0447
1589.00,0.0440
1588.00,0.0434
1587.00,0.0428
1586.00,0.0424
1585.00,0.0420
1584.00,0.0416
1583.00,0.0412
1582.00,0.0410
1581.00,0.0407
1580.00,0.0405
1579.00,0.0404
1578.00,0.0404
1577.00,0.0405
1576.00,0.0405
1575.00,0.0405
1574.00,0.0405
1573.00,0.0405
1572.00,0.0404
1571.00,0.0405
1570.00,0.0407
1569.00,0.0410
1568.00,0.0413
1567.00,0.0416
1566.00,0.0419
1565.00,0.0422
1564.00,0.0424
1563.00,0.0428
1562.00,0.0432
1561.00,0.0437
1560.00,0.0443
1559.00,0.0452
1558.00,0.0465
1557.00,0.0474
1556.00,0.0477
1555.00,0.0480
1554.00,0.0484
1553.00,0.0488
1552.00,0.0491
1551.00,0.0494
1550.00,0.0496
1549.00,0.0500
1548.00,0.0503
1547.00,0.0505
1546.00,0.0505
1545.00,0.0503
1544.00,0.0502
1543.00,0.0501
1542.00,0.0501
1541.00,0.0499
1540.00,0.0495
1539.00,0.0491
1538.00,0.0486
1537.00,0.0480
1536.00,0.0473
1535.00,0.0465
1534.00,0.0456
1533.00,0.0448
1532.00,0.0441
1531.00,0.0435
1530.00,0.0429
1529.00,0.0421
1528.00,0.0413
1527.00,0.0404
1526.00,0.0396
1525.00,0.0390
1524.00,0.0385
1523.00,0.0379
1522.00,0.0372
1521.00,0.0365
1520.00,0.0358
1519.00,0.0352
1518.00,0.0344
1517.00,0.0335
1516.00,0.0326
1515.00,0.0318
1514.00,0.0309
1513.00,0.0300
1512.00,0.0289
1511.00,0.0277
1510.00,0.0266
1509.00,0.0257
1508.00,0.0247
1507.00,0.0238
1506.00,0.0230
1505.00,0.0224
1504.00,0.0215
1503.00,0.0206
1502.00,0.0197
1501.00,0.0189
1500.00,0.0182
1499.00,0.0175
1498.00,0.0169
1497.00,0.0163
1496.00,0.0158
1495.00,0.0153
1494.00,0.0148
1493.00,0.0145
1492.00,0.0141
1491.00,0.0136
1490.00,0.0131
1489.00,0.0127
1488.00,0.0124
1487.00,0.0123
1486.00,0.0123
1485.00,0.0123
1484.00,0.0123
1483.00,0.0123
1482.00,0.0124
1481.00,0.0125
1480.00,0.0128
1479.00,0.0130
1478.00,0.0133
1477.00,0.0136
1476.00,0.0140
1475.00,0.0145
1474.00,0.0151
1473.00,0.0158
1472.00,0.0166
1471.00,0.0172
1470.00,0.0176
1469.00,0.0179
1468.00,0.0181
1467.00,0.0183
1466.00,0.0185
1465.00,0.0188
1464.00,0.0192
1463.00,0.0195
1462.00,0.0198
1461.00,0.0200
1460.00,0.0202
1459.00,0.0204
1458.00,0.0208
1457.00,0.0214
1456.00,0.0220
1455.00,0.0223
1454.00,0.0223
1453.00,0.0222
1452.00,0.0222
1451.00,0.0221
1450.00,0.0221
1449.00,0.0221
1448.00,0.0221
1447.00,0.0221
1446.00,0.0221
1445.00,0.0221
1444.00,0.0221
1443.00,0.0220
1442.00,0.0220
1441.00,0.0221
1440.00,0.0221
1439.00,0.0222
1438.00,0.0222
1437.00,0.0222
1436.00,0.0224
1435.00,0.0226
1434.00,0.0227
1433.00,0.0227
1432.00,0.0228
1431.00,0.0230
1430.00,0.0232
1429.00,0.0235
1428.00,0.0238
1427.00,0.0240
1426.00,0.0241
1425.00,0.0243
1424.00,0.0245
1423.00,0.0247
1422.00,0.0249
1421.00,0.0251
1420.00,0.0252
1419.00,0.0253
1418.00,0.0255
1417.00,0.0257
1416.00,0.0259
1415.00,0.0259
1414.00,0.0259
1413.00,0.0258
1412.00,0.0257
1411.00,0.0255
1410.00,0.0253
1409.00,0.0250
1408.00,0.0248
1407.00,0.0245
1406.00,0.0242
1405.00,0.0240
1404.00,0.0237
1403.00,0.0234
1402.00,0.0231
1401.00,0.0227
1400.00,0.0222
1399.00,0.0217
1398.00,0.0213
1397.00,0.0209
1396.00,0.0205
1395.00,0.0201
1394.00,0.0197
1393.00,0.0195
1392.00,0.0193
1391.00,0.0191
1390.00,0.0189
1389.00,0.0187
1388.00,0.0185
1387.00,0.0185
1386.00,0.0185
1385.00,0.0186
1384.00,0.0187
1383.00,0.0188
1382.00,0.0189
1381.00,0.0190
1380.00,0.0191
1379.00,0.0190
1378.00,0.0190
1377.00,0.0189
1376.00,0.0187
1375.00,0.0185
1374.00,0.0183
1373.00,0.0181
1372.00,0.0180
1371.00,0.0178
1370.00,0.0175
1369.00,0.0172
1368.00,0.0168
1367.00,0.0165
1366.00,0.0161
1365.00,0.0157
1364.00,0.0152
1363.00,0.0147
1362.00,0.0145
1361.00,0.0144
1360.00,0.0143
1359.00,0.0142
1358.00,0.0141
1357.00,0.0139
1356.00,0.0137
1355.00,0.0135
1354.00,0.0133
1353.00,0.0131
1352.00,0.0129
1351.00,0.0126
1350.00,0.0124
1349.00,0.0121
1348.00,0.0117
1347.00,0.0114
1346.00,0.0111
1345.00,0.0108
1344.00,0.0105
1343.00,0.0101
1342.00,0.0097
1341.00,0.0093
1340.00,0.0089
1339.00,0.0087
1338.00,0.0085
1337.00,0.0084
1336.00,0.0082
1335.00,0.0080
1334.00,0.0078
1333.00,0.0076
1332.00,0.0073
1331.00,0.0072
1330.00,0.0070
1329.00,0.0070
1328.00,0.0069
1327.00,0.0069
1326.00,0.0069
1325.00,0.0069
1324.00,0.0069
1323.00,0.0069
1322.00,0.0069
1321.00,0.0069
1320.00,0.0070
1319.00,0.0071
1318.00,0.0071
1317.00,0.0072
1316.00,0.0072
1315.00,0.0073
1314.00,0.0073
1313.00,0.0073
1312.00,0.0073
1311.00,0.0073
1310.00,0.0073
1309.00,0.0074
1308.00,0.0074
1307.00,0.0074
1306.00,0.0075
1305.00,0.0077
1304.00,0.0079
1303.00,0.0081
1302.00,0.0083
1301.00,0.0086
1300.00,0.0090
1299.00,0.0094
1298.00,0.0100
1297.00,0.0105
1296.00,0.0112
1295.00,0.0118
1294.00,0.0125
1293.00,0.0133
1292.00,0.0141
1291.00,0.0151
1290.00,0.0161
1289.00,0.0172
1288.00,0.0184
1287.00,0.0197
1286.00,0.0210
1285.00,0.0224
1284.00,0.0239
1283.00,0.0254
1282.00,0.0270
1281.00,0.0286
1280.00,0.0303
1279.00,0.0320
1278.00,0.0338
1277.00,0.0356
1276.00,0.0374
1275.00,0.0392
1274.00,0.0410
1273.00,0.0429
1272.00,0.0447
1271.00,0.0466
1270.00,0.0485
1269.00,0.0503
1268.00,0.0520
1267.00,0.0537
1266.00,0.0553
1265.00,0.0569
1264.00,0.0585
1263.00,0.0599
1262.00,0.0614
1261.00,0.0627
1260.00,0.0640
1259.00,0.0653
1258.00,0.0665
1257.00,0.0677
1256.00,0.0687
1255.00,0.0697
1254.00,0.0707
1253.00,0.0715
1252.00,0.0724
1251.00,0.0732
1250.00,0.0740
1249.00,0.0747
1248.00,0.0753
1247.00,0.0760
1246.00,0.0766
1245.00,0.0772
1244.00,0.0779
1243.00,0.0786
1242.00,0.0792
1241.00,0.0800
1240.00,0.0807
1239.00,0.0815
1238.00,0.0823
1237.00,0.0832
1236.00,0.0841
1235.00,0.0849
1234.00,0.0858
1233.00,0.0866
1232.00,0.0874
1231.00,0.0881
1230.00,0.0888
1229.00,0.0895
1228.00,0.0901
1227.00,0.0906
1226.00,0.0911
1225.00,0.0916
1224.00,0.0920
1223.00,0.0924
1222.00,0.0926
1221.00,0.0927
1220.00,0.0927
1219.00,0.0926
1218.00,0.0924
1217.00,0.0920
1216.00,0.0915
1215.00,0.0909
1214.00,0.0901
1213.00,0.0892
1212.00,0.0882
1211.00,0.0870
1210.00,0.0857
1209.00,0.0844
1208.00,0.0829
1207.00,0.0814
1206.00,0.0799
1205.00,0.0783
1204.00,0.0767
1203.00,0.0752
1202.00,0.0736
1201.00,0.0722
1200.00,0.0709
1199.00,0.0698
1198.00,0.0687
1197.00,0.0677
1196.00,0.0668
1195.00,0.0660
1194.00,0.0652
1193.00,0.0645
1192.00,0.0637
1191.00,0.0628
1190.00,0.0618
1189.00,0.0608
1188.00,0.0596
1187.00,0.0585
1186.00,0.0574
1185.00,0.0565
1184.00,0.0556
1183.00,0.0549
1182.00,0.0543
1181.00,0.0539
1180.00,0.0537
1179.00,0.0536
1178.00,0.0537
1177.00,0.0539
1176.00,0.0543
1175.00,0.0547
1174.00,0.0553
1173.00,0.0561
1172.00,0.0570
1171.00,0.0580
1170.00,0.0592
1169.00,0.0605
1168.00,0.0620
1167.00,0.0635
1166.00,0.0651
1165.00,0.0668
1164.00,0.0685
1163.00,0.0701
1162.00,0.0717
1161.00,0.0732
1160.00,0.0746
1159.00,0.0758
1158.00,0.0769
1157.00,0.0778
1156.00,0.0787
1155.00,0.0793
1154.00,0.0798
1153.00,0.0801
1152.00,0.0802
1151.00,0.0801
1150.00,0.0798
1149.00,0.0793
1148.00,0.0786
1147.00,0.0777
1146.00,0.0767
1145.00,0.0756
1144.00,0.0744
1143.00,0.0732
1142.00,0.0721
1141.00,0.0711
1140.00,0.0701
1139.00,0.0694
1138.00,0.0688
1137.00,0.0684
1136.00,0.0682
1135.00,0.0682
1134.00,0.0684
1133.00,0.0688
1132.00,0.0694
1131.00,0.0702
1130.00,0.0710
1129.00,0.0719
1128.00,0.0727
1127.00,0.0734
1126.00,0.0738
1125.00,0.0740
1124.00,0.0739
1123.00,0.0735
1122.00,0.0729
1121.00,0.0722
1120.00,0.0715
1119.00,0.0707
1118.00,0.0700
1117.00,0.0695
1116.00,0.0690
1115.00,0.0687
1114.00,0.0684
1113.00,0.0682
1112.00,0.0681
1111.00,0.0682
1110.00,0.0684
1109.00,0.0689
1108.00,0.0695
1107.00,0.0703
1106.00,0.0712
1105.00,0.0723
1104.00,0.0735
1103.00,0.0749
1102.00,0.0764
1101.00,0.0781
1100.00,0.0798
1099.00,0.0816
1098.00,0.0833
1097.00,0.0850
1096.00,0.0867
1095.00,0.0883
1094.00,0.0899
1093.00,0.0915
1092.00,0.0932
1091.00,0.0949
1090.00,0.0967
1089.00,0.0985
1088.00,0.1004
1087.00,0.1024
1086.00,0.1045
1085.00,0.1067
1084.00,0.1090
1083.00,0.1114
1082.00,0.1138
1081.00,0.1163
1080.00,0.1188
1079.00,0.1214
1078.00,0.1239
1077.00,0.1263
1076.00,0.1286
1075.00,0.1307
1074.00,0.1325
1073.00,0.1341
1072.00,0.1355
1071.00,0.1367
1070.00,0.1377
1069.00,0.1386
1068.00,0.1393
1067.00,0.1397
1066.00,0.1397
1065.00,0.1395
1064.00,0.1391
1063.00,0.1386
1062.00,0.1379
1061.00,0.1373
1060.00,0.1366
1059.00,0.1359
1058.00,0.1354
1057.00,0.1351
1056.00,0.1350
1055.00,0.1351
1054.00,0.1355
1053.00,0.1361
1052.00,0.1370
1051.00,0.1380
1050.00,0.1392
1049.00,0.1405
1048.00,0.1421
1047.00,0.1438
1046.00,0.1455
1045.00,0.1474
1044.00,0.1492
1043.00,0.1508
1042.00,0.1522
1041.00,0.1534
1040.00,0.1543
1039.00,0.1548
1038.00,0.1552
1037.00,0.1553
1036.00,0.1554
1035.00,0.1554
1034.00,0.1553
1033.00,0.1553
1032.00,0.1554
1031.00,0.1554
1030.00,0.1553
1029.00,0.1551
1028.00,0.1546
1027.00,0.1539
1026.00,0.1529
1025.00,0.1517
1024.00,0.1502
1023.00,0.1485
1022.00,0.1465
1021.00,0.1442
1020.00,0.1419
1019.00,0.1394
1018.00,0.1369
1017.00,0.1344
1016.00,0.1320
1015.00,0.1295
1014.00,0.1271
1013.00,0.1249
1012.00,0.1229
1011.00,0.1211
1010.00,0.1195
1009.00,0.1180
1008.00,0.1165
1007.00,0.1150
1006.00,0.1135
1005.00,0.1118
1004.00,0.1099
1003.00,0.1078
1002.00,0.1055
1001.00,0.1029
1000.00,0.1000
999.00,0.0969
998.00,0.0938
997.00,0.0907
996.00,0.0879
995.00,0.0852
994.00,0.0827
993.00,0.0803
992.00,0.0781
991.00,0.0758
990.00,0.0737
989.00,0.0715
988.00,0.0694
987.00,0.0673
986.00,0.0652
985.00,0.0633
984.00,0.0614
983.00,0.0596
982.00,0.0580
981.00,0.0566
980.00,0.0554
979.00,0.0543
978.00,0.0534
977.00,0.0526
976.00,0.0519
975.00,0.0511
974.00,0.0503
973.00,0.0494
972.00,0.0483
971.00,0.0471
970.00,0.0458
969.00,0.0443
968.00,0.0425
967.00,0.0405
966.00,0.0382
965.00,0.0357
964.00,0.0331
963.00,0.0305
962.00,0.0281
961.00,0.0257
960.00,0.0236
959.00,0.0216
958.00,0.0199
957.00,0.0185
956.00,0.0173
955.00,0.0163
954.00,0.0155
953.00,0.0148
952.00,0.0144
951.00,0.0142
950.00,0.0143
949.00,0.0145
948.00,0.0148
947.00,0.0153
946.00,0.0160
945.00,0.0170
944.00,0.0182
943.00,0.0198
942.00,0.0218
941.00,0.0240
940.00,0.0264
939.00,0.0290
938.00,0.0317
937.00,0.0345
936.00,0.0371
935.00,0.0396
934.00,0.0418
933.00,0.0436
932.00,0.0449
931.00,0.0460
930.00,0.0467
929.00,0.0471
928.00,0.0471
927.00,0.0467
926.00,0.0460
925.00,0.0450
924.00,0.0439
923.00,0.0427
922.00,0.0415
921.00,0.0402
920.00,0.0387
919.00,0.0373
918.00,0.0358
917.00,0.0343
916.00,0.0329
915.00,0.0314
914.00,0.0300
913.00,0.0285
912.00,0.0270
911.00,0.0256
910.00,0.0244
909.00,0.0232
908.00,0.0222
907.00,0.0213
906.00,0.0205
905.00,0.0198
904.00,0.0192
903.00,0.0187
902.00,0.0183
901.00,0.0180
900.00,0.0177
899.00,0.0174
898.00,0.0172
897.00,0.0171
896.00,0.0170
895.00,0.0170
894.00,0.0171
893.00,0.0172
892.00,0.0171
891.00,0.0170
890.00,0.0168
889.00,0.0165
888.00,0.0161
887.00,0.0155
886.00,0.0147
885.00,0.0138
884.00,0.0127
883.00,0.0115
882.00,0.0103
881.00,0.0092
880.00,0.0082
879.00,0.0074
878.00,0.0068
877.00,0.0065
876.00,0.0063
875.00,0.0064
874.00,0.0065
873.00,0.0068
872.00,0.0069
871.00,0.0069
870.00,0.0068
869.00,0.0067
868.00,0.0067
867.00,0.0067
866.00,0.0069
865.00,0.0071
864.00,0.0074
863.00,0.0078
862.00,0.0086
861.00,0.0096
860.00,0.0107
859.00,0.0119
858.00,0.0133
857.00,0.0148
856.00,0.0164
855.00,0.0181
854.00,0.0198
853.00,0.0216
852.00,0.0234
851.00,0.0251
850.00,0.0267
849.00,0.0282
848.00,0.0293
847.00,0.0301
846.00,0.0306
845.00,0.0306
844.00,0.0303
843.00,0.0296
842.00,0.0288
841.00,0.0278
840.00,0.0267
839.00,0.0256
838.00,0.0244
837.00,0.0232
836.00,0.0220
835.00,0.0210
834.00,0.0200
833.00,0.0190
832.00,0.0181
831.00,0.0172
830.00,0.0163
829.00,0.0154
828.00,0.0146
827.00,0.0138
826.00,0.0131
825.00,0.0125
824.00,0.0120
823.00,0.0116
822.00,0.0112
821.00,0.0108
820.00,0.0103
819.00,0.0100
818.00,0.0099
817.00,0.0098
816.00,0.0097
815.00,0.0096
814.00,0.0095
813.00,0.0095
812.00,0.0096
811.00,0.0098
810.00,0.0101
809.00,0.0103
808.00,0.0105
807.00,0.0105
806.00,0.0106
805.00,0.0107
804.00,0.0106
803.00,0.0105
802.00,0.0102
801.00,0.0099
800.00,0.0096
799.00,0.0093
798.00,0.0091
797.00,0.0088
796.00,0.0085
795.00,0.0081
794.00,0.0077
793.00,0.0074
792.00,0.0072
791.00,0.0071
790.00,0.0071
789.00,0.0070
788.00,0.0069
787.00,0.0067
786.00,0.0067
785.00,0.0066
784.00,0.0066
783.00,0.0067
782.00,0.0069
781.00,0.0073
780.00,0.0078
779.00,0.0083
778.00,0.0088
777.00,0.0093
776.00,0.0096
775.00,0.0099
774.00,0.0101
773.00,0.0103
772.00,0.0103
771.00,0.0102
770.00,0.0100
769.00,0.0096
768.00,0.0092
767.00,0.0087
766.00,0.0082
765.00,0.0078
764.00,0.0073
763.00,0.0069
762.00,0.0067
761.00,0.0065
760.00,0.0065
759.00,0.0065
758.00,0.0066
757.00,0.0068
756.00,0.0071
755.00,0.0074
754.00,0.0078
753.00,0.0084
752.00,0.0091
751.00,0.0100
750.00,0.0109
749.00,0.0120
748.00,0.0131
747.00,0.0141
746.00,0.0151
745.00,0.0160
744.00,0.0167
743.00,0.0173
742.00,0.0179
741.00,0.0184
740.00,0.0187
739.00,0.0190
738.00,0.0192
737.00,0.0194
736.00,0.0194
735.00,0.0194
734.00,0.0194
733.00,0.0194
732.00,0.0192
731.00,0.0191
730.00,0.0189
729.00,0.0188
728.00,0.0187
727.00,0.0187
726.00,0.0187
725.00,0.0187
724.00,0.0186
723.00,0.0185
722.00,0.0183
721.00,0.0180
720.00,0.0176
719.00,0.0173
718.00,0.0171
717.00,0.0170
716.00,0.0169
715.00,0.0170
714.00,0.0171
713.00,0.0174
712.00,0.0178
711.00,0.0183
710.00,0.0191
709.00,0.0199
708.00,0.0207
707.00,0.0215
706.00,0.0224
705.00,0.0232
704.00,0.0238
703.00,0.0243
702.00,0.0247
701.00,0.0250
700.00,0.0252
699.00,0.0250
698.00,0.0246
697.00,0.0240
696.00,0.0231
695.00,0.0222
694.00,0.0214
693.00,0.0204
692.00,0.0193
691.00,0.0181
690.00,0.0171
689.00,0.0162
688.00,0.0153
687.00,0.0144
686.00,0.0136
685.00,0.0129
684.00,0.0121
683.00,0.0115
682.00,0.0110
681.00,0.0106
680.00,0.0104
679.00,0.0102
678.00,0.0100
677.00,0.0100
676.00,0.0100
675.00,0.0102
674.00,0.0104
673.00,0.0106
672.00,0.0105
671.00,0.0102
670.00,0.0096
669.00,0.0090
668.00,0.0090
667.00,0.0097
666.00,0.0104
665.00,0.0108
664.00,0.0109
663.00,0.0111
662.00,0.0116
661.00,0.0121
660.00,0.0125
659.00,0.0128
658.00,0.0129
657.00,0.0128
656.00,0.0124
655.00,0.0119
654.00,0.0114
653.00,0.0108
652.00,0.0103
651.00,0.0097
650.00,0.0093
649.00,0.0090
648.00,0.0088
647.00,0.0086
646.00,0.0085
645.00,0.0084
644.00,0.0082
643.00,0.0080
642.00,0.0078
641.00,0.0075
640.00,0.0071
639.00,0.0067
638.00,0.0064
637.00,0.0062
636.00,0.0062
635.00,0.0065
634.00,0.0070
633.00,0.0077
632.00,0.0083
631.00,0.0089
630.00,0.0095
629.00,0.0104
628.00,0.0113
627.00,0.0122
626.00,0.0133
625.00,0.0144
624.00,0.0155
623.00,0.0165
622.00,0.0175
621.00,0.0185
620.00,0.0195
619.00,0.0206
618.00,0.0217
617.00,0.0229
616.00,0.0238
615.00,0.0246
614.00,0.0253
613.00,0.0258
612.00,0.0262
611.00,0.0266
610.00,0.0272
609.00,0.0279
608.00,0.0285
607.00,0.0289
606.00,0.0293
605.00,0.0295
604.00,0.0298
603.00,0.0300
602.00,0.0302
601.00,0.0305
600.00,0.0309
599.00,0.0310
598.00,0.0310
597.00,0.0307
596.00,0.0305
595.00,0.0303
594.00,0.0301
593.00,0.0300
592.00,0.0299
591.00,0.0298
590.00,0.0299
589.00,0.0302
588.00,0.0307
587.00,0.0313
586.00,0.0321
585.00,0.0331
584.00,0.0340
583.00,0.0346
582.00,0.0351
581.00,0.0355
580.00,0.0359
579.00,0.0363
578.00,0.0366
577.00,0.0367
576.00,0.0365
575.00,0.0359
574.00,0.0351
573.00,0.0343
572.00,0.0337
571.00,0.0331
570.00,0.0323
569.00,0.0314
568.00,0.0304
567.00,0.0295
566.00,0.0287
565.00,0.0280
564.00,0.0273
563.00,0.0268
562.00,0.0264
561.00,0.0261
560.00,0.0257
559.00,0.0253
558.00,0.0248
557.00,0.0244
556.00,0.0241
555.00,0.0238
554.00,0.0235
553.00,0.0230
552.00,0.0226
551.00,0.0225
550.00,0.0227
549.00,0.0229
548.00,0.0230
547.00,0.0230
546.00,0.0230
545.00,0.0229
544.00,0.0228
543.00,0.0227
542.00,0.0225
541.00,0.0224
540.00,0.0225
539.00,0.0227
538.00,0.0228
537.00,0.0228
536.00,0.0226
535.00,0.0223
534.00,0.0218
533.00,0.0211
532.00,0.0205
531.00,0.0201
530.00,0.0198
529.00,0.0195
528.00,0.0192
527.00,0.0191
526.00,0.0191
525.00,0.0192
524.00,0.0193
523.00,0.0193
522.00,0.0190
521.00,0.0185
520.00,0.0179
519.00,0.0176
518.00,0.0174
517.00,0.0173
516.00,0.0172
515.00,0.0170
514.00,0.0168
513.00,0.0163
512.00,0.0154
511.00,0.0143
510.00,0.0130
509.00,0.0118
508.00,0.0108
507.00,0.0103
506.00,0.0102
505.00,0.0104
504.00,0.0103
503.00,0.0100
502.00,0.0095
501.00,0.0088
500.00,0.0082
499.00,0.0080
498.00,0.0080
497.00,0.0082
496.00,0.0084
495.00,0.0085
494.00,0.0083
493.00,0.0079
492.00,0.0073
491.00,0.0072
490.00,0.0076
489.00,0.0084
488.00,0.0093
487.00,0.0099
486.00,0.0103
485.00,0.0108
484.00,0.0113
483.00,0.0120
482.00,0.0128
481.00,0.0135
480.00,0.0141
479.00,0.0146
478.00,0.0150
477.00,0.0152
476.00,0.0153
475.00,0.0154
474.00,0.0156
473.00,0.0159
472.00,0.0159
471.00,0.0155
470.00,0.0147
469.00,0.0141
468.00,0.0142
467.00,0.0147
466.00,0.0150
465.00,0.0148
464.00,0.0142
463.00,0.0136
462.00,0.0132
461.00,0.0128
460.00,0.0123
459.00,0.0118
458.00,0.0111
457.00,0.0102
456.00,0.0093
455.00,0.0087
454.00,0.0084
453.00,0.0089
452.00,0.0085
451.00,0.0077
450.00,0.0068
