Created as New Dataset,Sample 001 By Administrator Date Monday, June 09 2025
cm-1,A
4000.00,0.0070
3999.00,0.0070
3998.00,0.0070
3997.00,0.0070
3996.00,0.0070
3995.00,0.0070
3994.00,0.0070
3993.00,0.0070
3992.00,0.0070
3991.00,0.0070
3990.00,0.0070
3989.00,0.0070
3988.00,0.0070
3987.00,0.0070
3986.00,0.0071
3985.00,0.0071
3984.00,0.0070
3983.00,0.0070
3982.00,0.0070
3981.00,0.0070
3980.00,0.0071
3979.00,0.0071
3978.00,0.0071
3977.00,0.0072
3976.00,0.0072
3975.00,0.0072
3974.00,0.0072
3973.00,0.0071
3972.00,0.0071
3971.00,0.0071
3970.00,0.0071
3969.00,0.0071
3968.00,0.0071
3967.00,0.0071
3966.00,0.0071
3965.00,0.0071
3964.00,0.0071
3963.00,0.0071
3962.00,0.0072
3961.00,0.0072
3960.00,0.0072
3959.00,0.0072
3958.00,0.0073
3957.00,0.0073
3956.00,0.0073
3955.00,0.0073
3954.00,0.0073
3953.00,0.0073
3952.00,0.0073
3951.00,0.0073
3950.00,0.0073
3949.00,0.0073
3948.00,0.0073
3947.00,0.0072
3946.00,0.0072
3945.00,0.0072
3944.00,0.0072
3943.00,0.0072
3942.00,0.0072
3941.00,0.0071
3940.00,0.0071
3939.00,0.0071
3938.00,0.0072
3937.00,0.0072
3936.00,0.0072
3935.00,0.0073
3934.00,0.0073
3933.00,0.0074
3932.00,0.0074
3931.00,0.0073
3930.00,0.0073
3929.00,0.0073
3928.00,0.0073
3927.00,0.0073
3926.00,0.0073
3925.00,0.0073
3924.00,0.0073
3923.00,0.0073
3922.00,0.0073
3921.00,0.0073
3920.00,0.0073
3919.00,0.0073
3918.00,0.0074
3917.00,0.0073
3916.00,0.0073
3915.00,0.0072
3914.00,0.0072
3913.00,0.0072
3912.00,0.0072
3911.00,0.0071
3910.00,0.0071
3909.00,0.0071
3908.00,0.0072
3907.00,0.0072
3906.00,0.0073
3905.00,0.0074
3904.00,0.0074
3903.00,0.0074
3902.00,0.0075
3901.00,0.0075
3900.00,0.0075
3899.00,0.0074
3898.00,0.0074
3897.00,0.0073
3896.00,0.0073
3895.00,0.0073
3894.00,0.0074
3893.00,0.0074
3892.00,0.0073
3891.00,0.0073
3890.00,0.0073
3889.00,0.0072
3888.00,0.0073
3887.00,0.0073
3886.00,0.0074
3885.00,0.0074
3884.00,0.0074
3883.00,0.0074
3882.00,0.0075
3881.00,0.0075
3880.00,0.0074
3879.00,0.0074
3878.00,0.0073
3877.00,0.0073
3876.00,0.0074
3875.00,0.0074
3874.00,0.0075
3873.00,0.0075
3872.00,0.0074
3871.00,0.0074
3870.00,0.0074
3869.00,0.0073
3868.00,0.0073
3867.00,0.0073
3866.00,0.0073
3865.00,0.0074
3864.00,0.0075
3863.00,0.0074
3862.00,0.0074
3861.00,0.0074
3860.00,0.0073
3859.00,0.0073
3858.00,0.0072
3857.00,0.0070
3856.00,0.0068
3855.00,0.0068
3854.00,0.0068
3853.00,0.0069
3852.00,0.0070
3851.00,0.0071
3850.00,0.0073
3849.00,0.0074
3848.00,0.0074
3847.00,0.0075
3846.00,0.0074
3845.00,0.0074
3844.00,0.0074
3843.00,0.0075
3842.00,0.0074
3841.00,0.0074
3840.00,0.0074
3839.00,0.0074
3838.00,0.0074
3837.00,0.0074
3836.00,0.0074
3835.00,0.0074
3834.00,0.0074
3833.00,0.0074
3832.00,0.0074
3831.00,0.0074
3830.00,0.0074
3829.00,0.0074
3828.00,0.0073
3827.00,0.0073
3826.00,0.0073
3825.00,0.0072
3824.00,0.0072
3823.00,0.0072
3822.00,0.0074
3821.00,0.0075
3820.00,0.0075
3819.00,0.0074
3818.00,0.0073
3817.00,0.0073
3816.00,0.0074
3815.00,0.0074
3814.00,0.0073
3813.00,0.0073
3812.00,0.0072
3811.00,0.0072
3810.00,0.0071
3809.00,0.0071
3808.00,0.0070
3807.00,0.0070
3806.00,0.0071
3805.00,0.0071
3804.00,0.0071
3803.00,0.0072
3802.00,0.0073
3801.00,0.0073
3800.00,0.0073
3799.00,0.0073
3798.00,0.0073
3797.00,0.0073
3796.00,0.0073
3795.00,0.0073
3794.00,0.0072
3793.00,0.0072
3792.00,0.0072
3791.00,0.0072
3790.00,0.0072
3789.00,0.0072
3788.00,0.0072
3787.00,0.0072
3786.00,0.0072
3785.00,0.0072
3784.00,0.0072
3783.00,0.0073
3782.00,0.0073
3781.00,0.0073
3780.00,0.0073
3779.00,0.0073
3778.00,0.0072
3777.00,0.0072
3776.00,0.0072
3775.00,0.0072
3774.00,0.0072
3773.00,0.0072
3772.00,0.0071
3771.00,0.0072
3770.00,0.0073
3769.00,0.0073
3768.00,0.0074
3767.00,0.0074
3766.00,0.0075
3765.00,0.0075
3764.00,0.0075
3763.00,0.0074
3762.00,0.0075
3761.00,0.0075
3760.00,0.0075
3759.00,0.0075
3758.00,0.0075
3757.00,0.0075
3756.00,0.0075
3755.00,0.0075
3754.00,0.0075
3753.00,0.0074
3752.00,0.0074
3751.00,0.0074
3750.00,0.0074
3749.00,0.0075
3748.00,0.0075
3747.00,0.0075
3746.00,0.0075
3745.00,0.0076
3744.00,0.0077
3743.00,0.0077
3742.00,0.0077
3741.00,0.0078
3740.00,0.0078
3739.00,0.0079
3738.00,0.0080
3737.00,0.0081
3736.00,0.0081
3735.00,0.0081
3734.00,0.0080
3733.00,0.0078
3732.00,0.0078
3731.00,0.0078
3730.00,0.0078
3729.00,0.0079
3728.00,0.0079
3727.00,0.0080
3726.00,0.0080
3725.00,0.0079
3724.00,0.0079
3723.00,0.0079
3722.00,0.0079
3721.00,0.0079
3720.00,0.0079
3719.00,0.0078
3718.00,0.0078
3717.00,0.0078
3716.00,0.0078
3715.00,0.0079
3714.00,0.0079
3713.00,0.0080
3712.00,0.0081
3711.00,0.0082
3710.00,0.0082
3709.00,0.0083
3708.00,0.0084
3707.00,0.0084
3706.00,0.0085
3705.00,0.0085
3704.00,0.0086
3703.00,0.0086
3702.00,0.0087
3701.00,0.0087
3700.00,0.0087
3699.00,0.0086
3698.00,0.0087
3697.00,0.0087
3696.00,0.0088
3695.00,0.0088
3694.00,0.0089
3693.00,0.0090
3692.00,0.0091
3691.00,0.0092
3690.00,0.0093
3689.00,0.0094
3688.00,0.0095
3687.00,0.0096
3686.00,0.0097
3685.00,0.0099
3684.00,0.0100
3683.00,0.0101
3682.00,0.0102
3681.00,0.0102
3680.00,0.0103
3679.00,0.0104
3678.00,0.0104
3677.00,0.0106
3676.00,0.0109
3675.00,0.0112
3674.00,0.0114
3673.00,0.0116
3672.00,0.0118
3671.00,0.0121
3670.00,0.0124
3669.00,0.0125
3668.00,0.0127
3667.00,0.0129
3666.00,0.0131
3665.00,0.0133
3664.00,0.0135
3663.00,0.0137
3662.00,0.0139
3661.00,0.0142
3660.00,0.0144
3659.00,0.0147
3658.00,0.0150
3657.00,0.0153
3656.00,0.0157
3655.00,0.0160
3654.00,0.0163
3653.00,0.0166
3652.00,0.0170
3651.00,0.0175
3650.00,0.0179
3649.00,0.0184
3648.00,0.0188
3647.00,0.0191
3646.00,0.0195
3645.00,0.0199
3644.00,0.0202
3643.00,0.0206
3642.00,0.0210
3641.00,0.0213
3640.00,0.0216
3639.00,0.0220
3638.00,0.0225
3637.00,0.0230
3636.00,0.0234
3635.00,0.0239
3634.00,0.0243
3633.00,0.0246
3632.00,0.0250
3631.00,0.0254
3630.00,0.0259
3629.00,0.0266
3628.00,0.0272
3627.00,0.0279
3626.00,0.0285
3625.00,0.0290
3624.00,0.0295
3623.00,0.0299
3622.00,0.0303
3621.00,0.0307
3620.00,0.0312
3619.00,0.0317
3618.00,0.0323
3617.00,0.0329
3616.00,0.0334
3615.00,0.0339
3614.00,0.0344
3613.00,0.0349
3612.00,0.0354
3611.00,0.0359
3610.00,0.0364
3609.00,0.0369
3608.00,0.0375
3607.00,0.0380
3606.00,0.0385
3605.00,0.0390
3604.00,0.0394
3603.00,0.0399
3602.00,0.0404
3601.00,0.0409
3600.00,0.0414
3599.00,0.0419
3598.00,0.0424
3597.00,0.0429
3596.00,0.0435
3595.00,0.0440
3594.00,0.0445
3593.00,0.0450
3592.00,0.0455
3591.00,0.0460
3590.00,0.0465
3589.00,0.0470
3588.00,0.0476
3587.00,0.0482
3586.00,0.0488
3585.00,0.0494
3584.00,0.0499
3583.00,0.0504
3582.00,0.0509
3581.00,0.0512
3580.00,0.0516
3579.00,0.0520
3578.00,0.0524
3577.00,0.0529
3576.00,0.0534
3575.00,0.0539
3574.00,0.0544
3573.00,0.0549
3572.00,0.0555
3571.00,0.0560
3570.00,0.0565
3569.00,0.0570
3568.00,0.0576
3567.00,0.0581
3566.00,0.0586
3565.00,0.0592
3564.00,0.0598
3563.00,0.0603
3562.00,0.0608
3561.00,0.0612
3560.00,0.0616
3559.00,0.0620
3558.00,0.0624
3557.00,0.0629
3556.00,0.0634
3555.00,0.0639
3554.00,0.0644
3553.00,0.0649
3552.00,0.0654
3551.00,0.0659
3550.00,0.0664
3549.00,0.0669
3548.00,0.0674
3547.00,0.0679
3546.00,0.0684
3545.00,0.0689
3544.00,0.0694
3543.00,0.0699
3542.00,0.0704
3541.00,0.0709
3540.00,0.0713
3539.00,0.0718
3538.00,0.0722
3537.00,0.0727
3536.00,0.0731
3535.00,0.0735
3534.00,0.0740
3533.00,0.0745
3532.00,0.0750
3531.00,0.0754
3530.00,0.0759
3529.00,0.0763
3528.00,0.0768
3527.00,0.0773
3526.00,0.0778
3525.00,0.0784
3524.00,0.0789
3523.00,0.0793
3522.00,0.0797
3521.00,0.0800
3520.00,0.0804
3519.00,0.0808
3518.00,0.0812
3517.00,0.0817
3516.00,0.0822
3515.00,0.0827
3514.00,0.0832
3513.00,0.0836
3512.00,0.0841
3511.00,0.0845
3510.00,0.0849
3509.00,0.0853
3508.00,0.0857
3507.00,0.0862
3506.00,0.0867
3505.00,0.0872
3504.00,0.0877
3503.00,0.0882
3502.00,0.0886
3501.00,0.0891
3500.00,0.0895
3499.00,0.0899
3498.00,0.0903
3497.00,0.0907
3496.00,0.0911
3495.00,0.0915
3494.00,0.0920
3493.00,0.0924
3492.00,0.0928
3491.00,0.0932
3490.00,0.0937
3489.00,0.0941
3488.00,0.0946
3487.00,0.0950
3486.00,0.0955
3485.00,0.0959
3484.00,0.0964
3483.00,0.0968
3482.00,0.0972
3481.00,0.0977
3480.00,0.0981
3479.00,0.0985
3478.00,0.0989
3477.00,0.0993
3476.00,0.0997
3475.00,0.1001
3474.00,0.1005
3473.00,0.1010
3472.00,0.1015
3471.00,0.1020
3470.00,0.1025
3469.00,0.1030
3468.00,0.1034
3467.00,0.1038
3466.00,0.1041
3465.00,0.1045
3464.00,0.1049
3463.00,0.1052
3462.00,0.1056
3461.00,0.1061
3460.00,0.1065
3459.00,0.1069
3458.00,0.1073
3457.00,0.1077
3456.00,0.1081
3455.00,0.1085
3454.00,0.1088
3453.00,0.1092
3452.00,0.1096
3451.00,0.1099
3450.00,0.1103
3449.00,0.1107
3448.00,0.1111
3447.00,0.1115
3446.00,0.1119
3445.00,0.1123
3444.00,0.1127
3443.00,0.1131
3442.00,0.1135
3441.00,0.1139
3440.00,0.1143
3439.00,0.1148
3438.00,0.1152
3437.00,0.1156
3436.00,0.1160
3435.00,0.1163
3434.00,0.1166
3433.00,0.1170
3432.00,0.1174
3431.00,0.1178
3430.00,0.1182
3429.00,0.1185
3428.00,0.1189
3427.00,0.1192
3426.00,0.1195
3425.00,0.1199
3424.00,0.1202
3423.00,0.1206
3422.00,0.1209
3421.00,0.1212
3420.00,0.1215
3419.00,0.1218
3418.00,0.1221
3417.00,0.1225
3416.00,0.1228
3415.00,0.1232
3414.00,0.1235
3413.00,0.1238
3412.00,0.1242
3411.00,0.1244
3410.00,0.1247
3409.00,0.1250
3408.00,0.1253
3407.00,0.1256
3406.00,0.1259
3405.00,0.1262
3404.00,0.1265
3403.00,0.1268
3402.00,0.1271
3401.00,0.1274
3400.00,0.1276
3399.00,0.1278
3398.00,0.1279
3397.00,0.1282
3396.00,0.1284
3395.00,0.1287
3394.00,0.1289
3393.00,0.1292
3392.00,0.1294
3391.00,0.1296
3390.00,0.1298
3389.00,0.1299
3388.00,0.1301
3387.00,0.1302
3386.00,0.1304
3385.00,0.1306
3384.00,0.1308
3383.00,0.1310
3382.00,0.1312
3381.00,0.1314
3380.00,0.1316
3379.00,0.1317
3378.00,0.1319
3377.00,0.1320
3376.00,0.1321
3375.00,0.1322
3374.00,0.1323
3373.00,0.1324
3372.00,0.1325
3371.00,0.1327
3370.00,0.1329
3369.00,0.1330
3368.00,0.1331
3367.00,0.1332
3366.00,0.1332
3365.00,0.1333
3364.00,0.1333
3363.00,0.1334
3362.00,0.1335
3361.00,0.1335
3360.00,0.1336
3359.00,0.1337
3358.00,0.1337
3357.00,0.1338
3356.00,0.1338
3355.00,0.1338
3354.00,0.1339
3353.00,0.1339
3352.00,0.1340
3351.00,0.1340
3350.00,0.1340
3349.00,0.1340
3348.00,0.1340
3347.00,0.1340
3346.00,0.1341
3345.00,0.1341
3344.00,0.1342
3343.00,0.1342
3342.00,0.1342
3341.00,0.1342
3340.00,0.1342
3339.00,0.1342
3338.00,0.1341
3337.00,0.1341
3336.00,0.1340
3335.00,0.1340
3334.00,0.1339
3333.00,0.1339
3332.00,0.1339
3331.00,0.1339
3330.00,0.1339
3329.00,0.1339
3328.00,0.1339
3327.00,0.1339
3326.00,0.1338
3325.00,0.1338
3324.00,0.1338
3323.00,0.1337
3322.00,0.1337
3321.00,0.1337
3320.00,0.1337
3319.00,0.1336
3318.00,0.1336
3317.00,0.1335
3316.00,0.1335
3315.00,0.1334
3314.00,0.1334
3313.00,0.1333
3312.00,0.1333
3311.00,0.1333
3310.00,0.1333
3309.00,0.1332
3308.00,0.1331
3307.00,0.1330
3306.00,0.1330
3305.00,0.1329
3304.00,0.1329
3303.00,0.1328
3302.00,0.1327
3301.00,0.1326
3300.00,0.1324
3299.00,0.1323
3298.00,0.1322
3297.00,0.1321
3296.00,0.1320
3295.00,0.1320
3294.00,0.1319
3293.00,0.1318
3292.00,0.1317
3291.00,0.1316
3290.00,0.1315
3289.00,0.1313
3288.00,0.1312
3287.00,0.1311
3286.00,0.1310
3285.00,0.1308
3284.00,0.1307
3283.00,0.1305
3282.00,0.1303
3281.00,0.1301
3280.00,0.1299
3279.00,0.1297
3278.00,0.1295
3277.00,0.1293
3276.00,0.1291
3275.00,0.1289
3274.00,0.1287
3273.00,0.1284
3272.00,0.1282
3271.00,0.1280
3270.00,0.1278
3269.00,0.1276
3268.00,0.1273
3267.00,0.1270
3266.00,0.1267
3265.00,0.1265
3264.00,0.1262
3263.00,0.1259
3262.00,0.1256
3261.00,0.1253
3260.00,0.1250
3259.00,0.1247
3258.00,0.1244
3257.00,0.1242
3256.00,0.1239
3255.00,0.1235
3254.00,0.1232
3253.00,0.1229
3252.00,0.1225
3251.00,0.1222
3250.00,0.1218
3249.00,0.1215
3248.00,0.1212
3247.00,0.1209
3246.00,0.1206
3245.00,0.1202
3244.00,0.1199
3243.00,0.1195
3242.00,0.1192
3241.00,0.1189
3240.00,0.1185
3239.00,0.1182
3238.00,0.1179
3237.00,0.1176
3236.00,0.1172
3235.00,0.1169
3234.00,0.1165
3233.00,0.1162
3232.00,0.1158
3231.00,0.1155
3230.00,0.1151
3229.00,0.1147
3228.00,0.1143
3227.00,0.1140
3226.00,0.1136
3225.00,0.1132
3224.00,0.1129
3223.00,0.1125
3222.00,0.1121
3221.00,0.1117
3220.00,0.1113
3219.00,0.1109
3218.00,0.1105
3217.00,0.1102
3216.00,0.1098
3215.00,0.1094
3214.00,0.1090
3213.00,0.1086
3212.00,0.1082
3211.00,0.1078
3210.00,0.1074
3209.00,0.1069
3208.00,0.1065
3207.00,0.1061
3206.00,0.1057
3205.00,0.1053
3204.00,0.1049
3203.00,0.1045
3202.00,0.1041
3201.00,0.1036
3200.00,0.1032
3199.00,0.1027
3198.00,0.1023
3197.00,0.1018
3196.00,0.1014
3195.00,0.1009
3194.00,0.1005
3193.00,0.1000
3192.00,0.0996
3191.00,0.0991
3190.00,0.0987
3189.00,0.0982
3188.00,0.0977
3187.00,0.0973
3186.00,0.0968
3185.00,0.0963
3184.00,0.0959
3183.00,0.0954
3182.00,0.0949
3181.00,0.0945
3180.00,0.0940
3179.00,0.0935
3178.00,0.0931
3177.00,0.0926
3176.00,0.0921
3175.00,0.0916
3174.00,0.0911
3173.00,0.0906
3172.00,0.0901
3171.00,0.0896
3170.00,0.0891
3169.00,0.0886
3168.00,0.0881
3167.00,0.0877
3166.00,0.0872
3165.00,0.0867
3164.00,0.0862
3163.00,0.0857
3162.00,0.0853
3161.00,0.0848
3160.00,0.0843
3159.00,0.0838
3158.00,0.0833
3157.00,0.0828
3156.00,0.0824
3155.00,0.0820
3154.00,0.0815
3153.00,0.0810
3152.00,0.0805
3151.00,0.0800
3150.00,0.0795
3149.00,0.0791
3148.00,0.0786
3147.00,0.0782
3146.00,0.0778
3145.00,0.0773
3144.00,0.0768
3143.00,0.0763
3142.00,0.0758
3141.00,0.0754
3140.00,0.0750
3139.00,0.0746
3138.00,0.0742
3137.00,0.0738
3136.00,0.0734
3135.00,0.0729
3134.00,0.0725
3133.00,0.0721
3132.00,0.0717
3131.00,0.0713
3130.00,0.0709
3129.00,0.0705
3128.00,0.0701
3127.00,0.0697
3126.00,0.0693
3125.00,0.0689
3124.00,0.0685
3123.00,0.0681
3122.00,0.0678
3121.00,0.0674
3120.00,0.0671
3119.00,0.0667
3118.00,0.0663
3117.00,0.0659
3116.00,0.0656
3115.00,0.0652
3114.00,0.0649
3113.00,0.0646
3112.00,0.0642
3111.00,0.0639
3110.00,0.0635
3109.00,0.0631
3108.00,0.0628
3107.00,0.0625
3106.00,0.0622
3105.00,0.0619
3104.00,0.0616
3103.00,0.0613
3102.00,0.0611
3101.00,0.0608
3100.00,0.0605
3099.00,0.0602
3098.00,0.0600
3097.00,0.0597
3096.00,0.0595
3095.00,0.0592
3094.00,0.0588
3093.00,0.0585
3092.00,0.0582
3091.00,0.0579
3090.00,0.0577
3089.00,0.0574
3088.00,0.0572
3087.00,0.0569
3086.00,0.0566
3085.00,0.0563
3084.00,0.0561
3083.00,0.0558
3082.00,0.0556
3081.00,0.0554
3080.00,0.0552
3079.00,0.0550
3078.00,0.0547
3077.00,0.0545
3076.00,0.0543
3075.00,0.0540
3074.00,0.0537
3073.00,0.0535
3072.00,0.0532
3071.00,0.0530
3070.00,0.0527
3069.00,0.0524
3068.00,0.0522
3067.00,0.0519
3066.00,0.0517
3065.00,0.0515
3064.00,0.0512
3063.00,0.0510
3062.00,0.0507
3061.00,0.0504
3060.00,0.0502
3059.00,0.0499
3058.00,0.0496
3057.00,0.0493
3056.00,0.0490
3055.00,0.0488
3054.00,0.0485
3053.00,0.0482
3052.00,0.0480
3051.00,0.0478
3050.00,0.0475
3049.00,0.0472
3048.00,0.0470
3047.00,0.0467
3046.00,0.0465
3045.00,0.0462
3044.00,0.0460
3043.00,0.0457
3042.00,0.0455
3041.00,0.0452
3040.00,0.0450
3039.00,0.0447
3038.00,0.0444
3037.00,0.0442
3036.00,0.0439
3035.00,0.0437
3034.00,0.0435
3033.00,0.0434
3032.00,0.0432
3031.00,0.0430
3030.00,0.0428
3029.00,0.0426
3028.00,0.0423
3027.00,0.0421
3026.00,0.0419
3025.00,0.0417
3024.00,0.0416
3023.00,0.0414
3022.00,0.0412
3021.00,0.0411
3020.00,0.0409
3019.00,0.0408
3018.00,0.0406
3017.00,0.0405
3016.00,0.0403
3015.00,0.0402
3014.00,0.0400
3013.00,0.0399
3012.00,0.0397
3011.00,0.0396
3010.00,0.0395
3009.00,0.0393
3008.00,0.0391
3007.00,0.0390
3006.00,0.0388
3005.00,0.0387
3004.00,0.0386
3003.00,0.0385
3002.00,0.0384
3001.00,0.0383
3000.00,0.0382
2999.00,0.0381
2998.00,0.0381
2997.00,0.0380
2996.00,0.0380
2995.00,0.0380
2994.00,0.0380
2993.00,0.0380
2992.00,0.0381
2991.00,0.0382
2990.00,0.0382
2989.00,0.0382
2988.00,0.0383
2987.00,0.0384
2986.00,0.0385
2985.00,0.0386
2984.00,0.0387
2983.00,0.0388
2982.00,0.0389
2981.00,0.0391
2980.00,0.0392
2979.00,0.0394
2978.00,0.0396
2977.00,0.0398
2976.00,0.0400
2975.00,0.0401
2974.00,0.0404
2973.00,0.0406
2972.00,0.0409
2971.00,0.0411
2970.00,0.0413
2969.00,0.0415
2968.00,0.0417
2967.00,0.0419
2966.00,0.0420
2965.00,0.0422
2964.00,0.0423
2963.00,0.0424
2962.00,0.0425
2961.00,0.0426
2960.00,0.0426
2959.00,0.0426
2958.00,0.0426
2957.00,0.0425
2956.00,0.0424
2955.00,0.0423
2954.00,0.0422
2953.00,0.0421
2952.00,0.0420
2951.00,0.0419
2950.00,0.0418
2949.00,0.0418
2948.00,0.0417
2947.00,0.0417
2946.00,0.0417
2945.00,0.0417
2944.00,0.0417
2943.00,0.0418
2942.00,0.0420
2941.00,0.0421
2940.00,0.0422
2939.00,0.0424
2938.00,0.0425
2937.00,0.0426
2936.00,0.0428
2935.00,0.0429
2934.00,0.0431
2933.00,0.0431
2932.00,0.0432
2931.00,0.0432
2930.00,0.0433
2929.00,0.0434
2928.00,0.0435
2927.00,0.0435
2926.00,0.0435
2925.00,0.0435
2924.00,0.0435
2923.00,0.0435
2922.00,0.0434
2921.00,0.0433
2920.00,0.0431
2919.00,0.0429
2918.00,0.0426
2917.00,0.0422
2916.00,0.0418
2915.00,0.0414
2914.00,0.0410
2913.00,0.0407
2912.00,0.0404
2911.00,0.0400
2910.00,0.0397
2909.00,0.0394
2908.00,0.0391
2907.00,0.0388
2906.00,0.0385
2905.00,0.0383
2904.00,0.0381
2903.00,0.0378
2902.00,0.0376
2901.00,0.0374
2900.00,0.0372
2899.00,0.0369
2898.00,0.0367
2897.00,0.0364
2896.00,0.0361
2895.00,0.0359
2894.00,0.0357
2893.00,0.0355
2892.00,0.0353
2891.00,0.0351
2890.00,0.0349
2889.00,0.0347
2888.00,0.0345
2887.00,0.0343
2886.00,0.0341
2885.00,0.0339
2884.00,0.0337
2883.00,0.0336
2882.00,0.0335
2881.00,0.0333
2880.00,0.0332
2879.00,0.0331
2878.00,0.0330
2877.00,0.0329
2876.00,0.0328
2875.00,0.0326
2874.00,0.0325
2873.00,0.0323
2872.00,0.0322
2871.00,0.0320
2870.00,0.0318
2869.00,0.0316
2868.00,0.0313
2867.00,0.0310
2866.00,0.0308
2865.00,0.0306
2864.00,0.0305
2863.00,0.0304
2862.00,0.0303
2861.00,0.0302
2860.00,0.0301
2859.00,0.0301
2858.00,0.0301
2857.00,0.0301
2856.00,0.0301
2855.00,0.0302
2854.00,0.0302
2853.00,0.0301
2852.00,0.0300
2851.00,0.0298
2850.00,0.0295
2849.00,0.0291
2848.00,0.0287
2847.00,0.0282
2846.00,0.0277
2845.00,0.0273
2844.00,0.0268
2843.00,0.0265
2842.00,0.0262
2841.00,0.0259
2840.00,0.0256
2839.00,0.0253
2838.00,0.0251
2837.00,0.0249
2836.00,0.0247
2835.00,0.0246
2834.00,0.0244
2833.00,0.0243
2832.00,0.0241
2831.00,0.0239
2830.00,0.0238
2829.00,0.0237
2828.00,0.0235
2827.00,0.0234
2826.00,0.0233
2825.00,0.0232
2824.00,0.0231
2823.00,0.0230
2822.00,0.0229
2821.00,0.0227
2820.00,0.0226
2819.00,0.0225
2818.00,0.0224
2817.00,0.0223
2816.00,0.0222
2815.00,0.0221
2814.00,0.0220
2813.00,0.0219
2812.00,0.0218
2811.00,0.0217
2810.00,0.0216
2809.00,0.0215
2808.00,0.0214
2807.00,0.0213
2806.00,0.0212
2805.00,0.0211
2804.00,0.0211
2803.00,0.0210
2802.00,0.0209
2801.00,0.0208
2800.00,0.0208
2799.00,0.0207
2798.00,0.0206
2797.00,0.0205
2796.00,0.0204
2795.00,0.0203
2794.00,0.0203
2793.00,0.0202
2792.00,0.0201
2791.00,0.0200
2790.00,0.0199
2789.00,0.0199
2788.00,0.0199
2787.00,0.0198
2786.00,0.0198
2785.00,0.0197
2784.00,0.0196
2783.00,0.0196
2782.00,0.0195
2781.00,0.0194
2780.00,0.0193
2779.00,0.0193
2778.00,0.0192
2777.00,0.0191
2776.00,0.0190
2775.00,0.0189
2774.00,0.0189
2773.00,0.0188
2772.00,0.0188
2771.00,0.0187
2770.00,0.0187
2769.00,0.0186
2768.00,0.0186
2767.00,0.0186
2766.00,0.0185
2765.00,0.0185
2764.00,0.0184
2763.00,0.0183
2762.00,0.0183
2761.00,0.0182
2760.00,0.0182
2759.00,0.0181
2758.00,0.0181
2757.00,0.0180
2756.00,0.0180
2755.00,0.0180
2754.00,0.0179
2753.00,0.0179
2752.00,0.0179
2751.00,0.0178
2750.00,0.0178
2749.00,0.0177
2748.00,0.0177
2747.00,0.0176
2746.00,0.0176
2745.00,0.0175
2744.00,0.0175
2743.00,0.0175
2742.00,0.0174
2741.00,0.0174
2740.00,0.0173
2739.00,0.0172
2738.00,0.0172
2737.00,0.0171
2736.00,0.0171
2735.00,0.0171
2734.00,0.0171
2733.00,0.0171
2732.00,0.0170
2731.00,0.0170
2730.00,0.0169
2729.00,0.0169
2728.00,0.0168
2727.00,0.0168
2726.00,0.0167
2725.00,0.0167
2724.00,0.0166
2723.00,0.0166
2722.00,0.0165
2721.00,0.0165
2720.00,0.0165
2719.00,0.0165
2718.00,0.0165
2717.00,0.0164
2716.00,0.0164
2715.00,0.0163
2714.00,0.0163
2713.00,0.0162
2712.00,0.0162
2711.00,0.0161
2710.00,0.0161
2709.00,0.0160
2708.00,0.0160
2707.00,0.0160
2706.00,0.0160
2705.00,0.0160
2704.00,0.0159
2703.00,0.0159
2702.00,0.0158
2701.00,0.0158
2700.00,0.0157
2699.00,0.0157
2698.00,0.0157
2697.00,0.0157
2696.00,0.0157
2695.00,0.0156
2694.00,0.0156
2693.00,0.0156
2692.00,0.0155
2691.00,0.0155
2690.00,0.0155
2689.00,0.0154
2688.00,0.0154
2687.00,0.0154
2686.00,0.0153
2685.00,0.0153
2684.00,0.0153
2683.00,0.0153
2682.00,0.0153
2681.00,0.0153
2680.00,0.0152
2679.00,0.0152
2678.00,0.0151
2677.00,0.0151
2676.00,0.0151
2675.00,0.0150
2674.00,0.0150
2673.00,0.0150
2672.00,0.0149
2671.00,0.0149
2670.00,0.0149
2669.00,0.0149
2668.00,0.0149
2667.00,0.0149
2666.00,0.0148
2665.00,0.0148
2664.00,0.0148
2663.00,0.0149
2662.00,0.0149
2661.00,0.0150
2660.00,0.0150
2659.00,0.0150
2658.00,0.0149
2657.00,0.0149
2656.00,0.0148
2655.00,0.0148
2654.00,0.0148
2653.00,0.0147
2652.00,0.0147
2651.00,0.0147
2650.00,0.0147
2649.00,0.0146
2648.00,0.0146
2647.00,0.0145
2646.00,0.0145
2645.00,0.0145
2644.00,0.0144
2643.00,0.0144
2642.00,0.0144
2641.00,0.0143
2640.00,0.0142
2639.00,0.0142
2638.00,0.0141
2637.00,0.0141
2636.00,0.0140
2635.00,0.0139
2634.00,0.0139
2633.00,0.0138
2632.00,0.0138
2631.00,0.0138
2630.00,0.0138
2629.00,0.0138
2628.00,0.0137
2627.00,0.0137
2626.00,0.0136
2625.00,0.0136
2624.00,0.0136
2623.00,0.0136
2622.00,0.0135
2621.00,0.0135
2620.00,0.0134
2619.00,0.0133
2618.00,0.0133
2617.00,0.0132
2616.00,0.0131
2615.00,0.0131
2614.00,0.0131
2613.00,0.0131
2612.00,0.0131
2611.00,0.0131
2610.00,0.0130
2609.00,0.0129
2608.00,0.0129
2607.00,0.0128
2606.00,0.0128
2605.00,0.0128
2604.00,0.0127
2603.00,0.0127
2602.00,0.0127
2601.00,0.0127
2600.00,0.0127
2599.00,0.0126
2598.00,0.0126
2597.00,0.0126
2596.00,0.0126
2595.00,0.0125
2594.00,0.0125
2593.00,0.0125
2592.00,0.0124
2591.00,0.0124
2590.00,0.0123
2589.00,0.0123
2588.00,0.0122
2587.00,0.0121
2586.00,0.0121
2585.00,0.0120
2584.00,0.0120
2583.00,0.0120
2582.00,0.0120
2581.00,0.0120
2580.00,0.0121
2579.00,0.0122
2578.00,0.0122
2577.00,0.0122
2576.00,0.0121
2575.00,0.0120
2574.00,0.0119
2573.00,0.0118
2572.00,0.0118
2571.00,0.0118
2570.00,0.0118
2569.00,0.0118
2568.00,0.0118
2567.00,0.0117
2566.00,0.0116
2565.00,0.0116
2564.00,0.0116
2563.00,0.0116
2562.00,0.0117
2561.00,0.0117
2560.00,0.0117
2559.00,0.0116
2558.00,0.0116
2557.00,0.0115
2556.00,0.0115
2555.00,0.0114
2554.00,0.0114
2553.00,0.0114
2552.00,0.0115
2551.00,0.0115
2550.00,0.0115
2549.00,0.0115
2548.00,0.0115
2547.00,0.0114
2546.00,0.0114
2545.00,0.0113
2544.00,0.0113
2543.00,0.0112
2542.00,0.0112
2541.00,0.0112
2540.00,0.0112
2539.00,0.0112
2538.00,0.0112
2537.00,0.0112
2536.00,0.0112
2535.00,0.0111
2534.00,0.0111
2533.00,0.0112
2532.00,0.0112
2531.00,0.0111
2530.00,0.0111
2529.00,0.0111
2528.00,0.0112
2527.00,0.0112
2526.00,0.0112
2525.00,0.0111
2524.00,0.0111
2523.00,0.0111
2522.00,0.0110
2521.00,0.0110
2520.00,0.0110
2519.00,0.0110
2518.00,0.0109
2517.00,0.0109
2516.00,0.0109
2515.00,0.0109
2514.00,0.0109
2513.00,0.0109
2512.00,0.0110
2511.00,0.0111
2510.00,0.0112
2509.00,0.0112
2508.00,0.0111
2507.00,0.0110
2506.00,0.0110
2505.00,0.0109
2504.00,0.0109
2503.00,0.0108
2502.00,0.0108
2501.00,0.0107
2500.00,0.0107
2499.00,0.0107
2498.00,0.0107
2497.00,0.0108
2496.00,0.0109
2495.00,0.0109
2494.00,0.0109
2493.00,0.0109
2492.00,0.0108
2491.00,0.0109
2490.00,0.0109
2489.00,0.0109
2488.00,0.0109
2487.00,0.0109
2486.00,0.0108
2485.00,0.0108
2484.00,0.0108
2483.00,0.0107
2482.00,0.0107
2481.00,0.0107
2480.00,0.0107
2479.00,0.0106
2478.00,0.0106
2477.00,0.0106
2476.00,0.0106
2475.00,0.0106
2474.00,0.0106
2473.00,0.0106
2472.00,0.0106
2471.00,0.0105
2470.00,0.0105
2469.00,0.0105
2468.00,0.0105
2467.00,0.0105
2466.00,0.0105
2465.00,0.0105
2464.00,0.0105
2463.00,0.0105
2462.00,0.0106
2461.00,0.0107
2460.00,0.0107
2459.00,0.0107
2458.00,0.0107
2457.00,0.0107
2456.00,0.0107
2455.00,0.0106
2454.00,0.0106
2453.00,0.0106
2452.00,0.0106
2451.00,0.0106
2450.00,0.0106
2449.00,0.0106
2448.00,0.0105
2447.00,0.0105
2446.00,0.0104
2445.00,0.0104
2444.00,0.0104
2443.00,0.0104
2442.00,0.0104
2441.00,0.0104
2440.00,0.0104
2439.00,0.0104
2438.00,0.0104
2437.00,0.0104
2436.00,0.0103
2435.00,0.0103
2434.00,0.0103
2433.00,0.0102
2432.00,0.0101
2431.00,0.0101
2430.00,0.0101
2429.00,0.0101
2428.00,0.0101
2427.00,0.0101
2426.00,0.0102
2425.00,0.0103
2424.00,0.0103
2423.00,0.0103
2422.00,0.0102
2421.00,0.0101
2420.00,0.0101
2419.00,0.0101
2418.00,0.0102
2417.00,0.0102
2416.00,0.0102
2415.00,0.0101
2414.00,0.0101
2413.00,0.0102
2412.00,0.0102
2411.00,0.0102
2410.00,0.0102
2409.00,0.0102
2408.00,0.0101
2407.00,0.0101
2406.00,0.0100
2405.00,0.0100
2404.00,0.0100
2403.00,0.0100
2402.00,0.0100
2401.00,0.0100
2400.00,0.0100
2399.00,0.0100
2398.00,0.0100
2397.00,0.0099
2396.00,0.0100
2395.00,0.0100
2394.00,0.0100
2393.00,0.0100
2392.00,0.0101
2391.00,0.0101
2390.00,0.0101
2389.00,0.0101
2388.00,0.0101
2387.00,0.0100
2386.00,0.0100
2385.00,0.0100
2384.00,0.0100
2383.00,0.0100
2382.00,0.0100
2381.00,0.0100
2380.00,0.0100
2379.00,0.0099
2378.00,0.0099
2377.00,0.0099
2376.00,0.0099
2375.00,0.0100
2374.00,0.0100
2373.00,0.0100
2372.00,0.0100
2371.00,0.0100
2370.00,0.0100
2369.00,0.0099
2368.00,0.0099
2367.00,0.0099
2366.00,0.0099
2365.00,0.0099
2364.00,0.0101
2363.00,0.0102
2362.00,0.0103
2361.00,0.0103
2360.00,0.0103
2359.00,0.0103
2358.00,0.0103
2357.00,0.0103
2356.00,0.0103
2355.00,0.0103
2354.00,0.0103
2353.00,0.0104
2352.00,0.0104
2351.00,0.0104
2350.00,0.0103
2349.00,0.0104
2348.00,0.0105
2347.00,0.0106
2346.00,0.0107
2345.00,0.0108
2344.00,0.0107
2343.00,0.0107
2342.00,0.0107
2341.00,0.0108
2340.00,0.0108
2339.00,0.0108
2338.00,0.0108
2337.00,0.0109
2336.00,0.0109
2335.00,0.0109
2334.00,0.0108
2333.00,0.0108
2332.00,0.0107
2331.00,0.0107
2330.00,0.0107
2329.00,0.0108
2328.00,0.0110
2327.00,0.0114
2326.00,0.0118
2325.00,0.0122
2324.00,0.0124
2323.00,0.0124
2322.00,0.0122
2321.00,0.0120
2320.00,0.0118
2319.00,0.0116
2318.00,0.0115
2317.00,0.0115
2316.00,0.0115
2315.00,0.0115
2314.00,0.0115
2313.00,0.0115
2312.00,0.0115
2311.00,0.0114
2310.00,0.0114
2309.00,0.0113
2308.00,0.0113
2307.00,0.0113
2306.00,0.0112
2305.00,0.0112
2304.00,0.0113
2303.00,0.0113
2302.00,0.0114
2301.00,0.0114
2300.00,0.0114
2299.00,0.0115
2298.00,0.0115
2297.00,0.0116
2296.00,0.0117
2295.00,0.0117
2294.00,0.0117
2293.00,0.0118
2292.00,0.0119
2291.00,0.0120
2290.00,0.0120
2289.00,0.0121
2288.00,0.0121
2287.00,0.0120
2286.00,0.0120
2285.00,0.0121
2284.00,0.0121
2283.00,0.0122
2282.00,0.0122
2281.00,0.0121
2280.00,0.0121
2279.00,0.0120
2278.00,0.0119
2277.00,0.0118
2276.00,0.0117
2275.00,0.0117
2274.00,0.0117
2273.00,0.0117
2272.00,0.0116
2271.00,0.0116
2270.00,0.0116
2269.00,0.0116
2268.00,0.0116
2267.00,0.0116
2266.00,0.0115
2265.00,0.0114
2264.00,0.0113
2263.00,0.0112
2262.00,0.0111
2261.00,0.0110
2260.00,0.0111
2259.00,0.0112
2258.00,0.0112
2257.00,0.0113
2256.00,0.0113
2255.00,0.0112
2254.00,0.0111
2253.00,0.0111
2252.00,0.0110
2251.00,0.0110
2250.00,0.0111
2249.00,0.0111
2248.00,0.0112
2247.00,0.0112
2246.00,0.0112
2245.00,0.0111
2244.00,0.0111
2243.00,0.0111
2242.00,0.0112
2241.00,0.0112
2240.00,0.0112
2239.00,0.0112
2238.00,0.0110
2237.00,0.0109
2236.00,0.0109
2235.00,0.0110
2234.00,0.0110
2233.00,0.0110
2232.00,0.0110
2231.00,0.0110
2230.00,0.0110
2229.00,0.0110
2228.00,0.0110
2227.00,0.0110
2226.00,0.0110
2225.00,0.0110
2224.00,0.0109
2223.00,0.0109
2222.00,0.0108
2221.00,0.0108
2220.00,0.0109
2219.00,0.0110
2218.00,0.0110
2217.00,0.0110
2216.00,0.0109
2215.00,0.0109
2214.00,0.0108
2213.00,0.0108
2212.00,0.0108
2211.00,0.0108
2210.00,0.0109
2209.00,0.0110
2208.00,0.0111
2207.00,0.0110
2206.00,0.0109
2205.00,0.0108
2204.00,0.0107
2203.00,0.0106
2202.00,0.0105
2201.00,0.0105
2200.00,0.0105
2199.00,0.0106
2198.00,0.0106
2197.00,0.0106
2196.00,0.0106
2195.00,0.0105
2194.00,0.0104
2193.00,0.0103
2192.00,0.0102
2191.00,0.0103
2190.00,0.0104
2189.00,0.0107
2188.00,0.0108
2187.00,0.0109
2186.00,0.0109
2185.00,0.0109
2184.00,0.0108
2183.00,0.0106
2182.00,0.0104
2181.00,0.0103
2180.00,0.0102
2179.00,0.0100
2178.00,0.0099
2177.00,0.0100
2176.00,0.0102
2175.00,0.0104
2174.00,0.0106
2173.00,0.0107
2172.00,0.0108
2171.00,0.0109
2170.00,0.0109
2169.00,0.0111
2168.00,0.0111
2167.00,0.0111
2166.00,0.0111
2165.00,0.0109
2164.00,0.0108
2163.00,0.0108
2162.00,0.0107
2161.00,0.0103
2160.00,0.0092
2159.00,0.0077
2158.00,0.0064
2157.00,0.0059
2156.00,0.0061
2155.00,0.0065
2154.00,0.0068
2153.00,0.0072
2152.00,0.0075
2151.00,0.0078
2150.00,0.0082
2149.00,0.0086
2148.00,0.0089
2147.00,0.0090
2146.00,0.0090
2145.00,0.0090
2144.00,0.0089
2143.00,0.0088
2142.00,0.0086
2141.00,0.0084
2140.00,0.0084
2139.00,0.0085
2138.00,0.0087
2137.00,0.0090
2136.00,0.0090
2135.00,0.0089
2134.00,0.0087
2133.00,0.0086
2132.00,0.0087
2131.00,0.0089
2130.00,0.0091
2129.00,0.0094
2128.00,0.0098
2127.00,0.0100
2126.00,0.0102
2125.00,0.0103
2124.00,0.0105
2123.00,0.0106
2122.00,0.0108
2121.00,0.0108
2120.00,0.0108
2119.00,0.0108
2118.00,0.0107
2117.00,0.0108
2116.00,0.0110
2115.00,0.0112
2114.00,0.0113
2113.00,0.0113
2112.00,0.0113
2111.00,0.0113
2110.00,0.0113
2109.00,0.0113
2108.00,0.0113
2107.00,0.0113
2106.00,0.0113
2105.00,0.0114
2104.00,0.0115
2103.00,0.0115
2102.00,0.0115
2101.00,0.0114
2100.00,0.0114
2099.00,0.0114
2098.00,0.0113
2097.00,0.0111
2096.00,0.0109
2095.00,0.0107
2094.00,0.0105
2093.00,0.0105
2092.00,0.0106
2091.00,0.0107
2090.00,0.0108
2089.00,0.0108
2088.00,0.0108
2087.00,0.0108
2086.00,0.0108
2085.00,0.0109
2084.00,0.0110
2083.00,0.0110
2082.00,0.0110
2081.00,0.0110
2080.00,0.0111
2079.00,0.0112
2078.00,0.0113
2077.00,0.0113
2076.00,0.0112
2075.00,0.0110
2074.00,0.0107
2073.00,0.0106
2072.00,0.0106
2071.00,0.0107
2070.00,0.0107
2069.00,0.0107
2068.00,0.0106
2067.00,0.0104
2066.00,0.0103
2065.00,0.0102
2064.00,0.0102
2063.00,0.0101
2062.00,0.0100
2061.00,0.0098
2060.00,0.0097
2059.00,0.0096
2058.00,0.0097
2057.00,0.0097
2056.00,0.0097
2055.00,0.0097
2054.00,0.0097
2053.00,0.0099
2052.00,0.0103
2051.00,0.0105
2050.00,0.0105
2049.00,0.0101
2048.00,0.0098
2047.00,0.0095
2046.00,0.0094
2045.00,0.0094
2044.00,0.0093
2043.00,0.0092
2042.00,0.0091
2041.00,0.0090
2040.00,0.0090
2039.00,0.0091
2038.00,0.0092
2037.00,0.0091
2036.00,0.0087
2035.00,0.0083
2034.00,0.0079
2033.00,0.0078
2032.00,0.0079
2031.00,0.0080
2030.00,0.0079
2029.00,0.0077
2028.00,0.0074
2027.00,0.0072
2026.00,0.0070
2025.00,0.0070
2024.00,0.0073
2023.00,0.0075
2022.00,0.0077
2021.00,0.0079
2020.00,0.0081
2019.00,0.0080
2018.00,0.0078
2017.00,0.0076
2016.00,0.0075
2015.00,0.0077
2014.00,0.0078
2013.00,0.0078
2012.00,0.0077
2011.00,0.0075
2010.00,0.0075
2009.00,0.0075
2008.00,0.0075
2007.00,0.0073
2006.00,0.0069
2005.00,0.0067
2004.00,0.0067
2003.00,0.0068
2002.00,0.0069
2001.00,0.0072
2000.00,0.0077
1999.00,0.0080
1998.00,0.0082
1997.00,0.0083
1996.00,0.0083
1995.00,0.0083
1994.00,0.0083
1993.00,0.0084
1992.00,0.0086
1991.00,0.0087
1990.00,0.0087
1989.00,0.0086
1988.00,0.0085
1987.00,0.0083
1986.00,0.0082
1985.00,0.0083
1984.00,0.0086
1983.00,0.0088
1982.00,0.0091
1981.00,0.0093
1980.00,0.0092
1979.00,0.0089
1978.00,0.0084
1977.00,0.0080
1976.00,0.0076
1975.00,0.0072
1974.00,0.0071
1973.00,0.0072
1972.00,0.0074
1971.00,0.0074
1970.00,0.0073
1969.00,0.0071
1968.00,0.0071
1967.00,0.0070
1966.00,0.0069
1965.00,0.0070
1964.00,0.0071
1963.00,0.0073
1962.00,0.0073
1961.00,0.0071
1960.00,0.0069
1959.00,0.0067
1958.00,0.0066
1957.00,0.0068
1956.00,0.0071
1955.00,0.0073
1954.00,0.0074
1953.00,0.0073
1952.00,0.0073
1951.00,0.0073
1950.00,0.0073
1949.00,0.0074
1948.00,0.0075
1947.00,0.0075
1946.00,0.0075
1945.00,0.0075
1944.00,0.0075
1943.00,0.0074
1942.00,0.0073
1941.00,0.0073
1940.00,0.0074
1939.00,0.0075
1938.00,0.0075
1937.00,0.0075
1936.00,0.0076
1935.00,0.0076
1934.00,0.0076
1933.00,0.0075
1932.00,0.0075
1931.00,0.0075
1930.00,0.0076
1929.00,0.0077
1928.00,0.0077
1927.00,0.0077
1926.00,0.0077
1925.00,0.0076
1924.00,0.0076
1923.00,0.0077
1922.00,0.0078
1921.00,0.0079
1920.00,0.0080
1919.00,0.0080
1918.00,0.0079
1917.00,0.0079
1916.00,0.0079
1915.00,0.0079
1914.00,0.0079
1913.00,0.0079
1912.00,0.0079
1911.00,0.0078
1910.00,0.0078
1909.00,0.0078
1908.00,0.0078
1907.00,0.0078
1906.00,0.0078
1905.00,0.0077
1904.00,0.0077
1903.00,0.0076
1902.00,0.0076
1901.00,0.0077
1900.00,0.0077
1899.00,0.0077
1898.00,0.0077
1897.00,0.0078
1896.00,0.0078
1895.00,0.0078
1894.00,0.0076
1893.00,0.0075
1892.00,0.0074
1891.00,0.0074
1890.00,0.0074
1889.00,0.0074
1888.00,0.0074
1887.00,0.0074
1886.00,0.0074
1885.00,0.0074
1884.00,0.0074
1883.00,0.0074
1882.00,0.0073
1881.00,0.0073
1880.00,0.0073
1879.00,0.0073
1878.00,0.0072
1877.00,0.0072
1876.00,0.0073
1875.00,0.0073
1874.00,0.0073
1873.00,0.0073
1872.00,0.0073
1871.00,0.0073
1870.00,0.0073
1869.00,0.0073
1868.00,0.0073
1867.00,0.0073
1866.00,0.0073
1865.00,0.0073
1864.00,0.0073
1863.00,0.0072
1862.00,0.0071
1861.00,0.0071
1860.00,0.0071
1859.00,0.0071
1858.00,0.0071
1857.00,0.0071
1856.00,0.0072
1855.00,0.0072
1854.00,0.0072
1853.00,0.0071
1852.00,0.0071
1851.00,0.0071
1850.00,0.0070
1849.00,0.0069
1848.00,0.0069
1847.00,0.0069
1846.00,0.0070
1845.00,0.0071
1844.00,0.0071
1843.00,0.0070
1842.00,0.0069
1841.00,0.0069
1840.00,0.0069
1839.00,0.0070
1838.00,0.0071
1837.00,0.0071
1836.00,0.0071
1835.00,0.0072
1834.00,0.0071
1833.00,0.0071
1832.00,0.0072
1831.00,0.0072
1830.00,0.0072
1829.00,0.0072
1828.00,0.0071
1827.00,0.0071
1826.00,0.0071
1825.00,0.0070
1824.00,0.0070
1823.00,0.0070
1822.00,0.0070
1821.00,0.0071
1820.00,0.0071
1819.00,0.0070
1818.00,0.0069
1817.00,0.0069
1816.00,0.0069
1815.00,0.0069
1814.00,0.0070
1813.00,0.0070
1812.00,0.0070
1811.00,0.0071
1810.00,0.0071
1809.00,0.0071
1808.00,0.0072
1807.00,0.0071
1806.00,0.0071
1805.00,0.0070
1804.00,0.0070
1803.00,0.0070
1802.00,0.0070
1801.00,0.0070
1800.00,0.0070
1799.00,0.0071
1798.00,0.0071
1797.00,0.0070
1796.00,0.0070
1795.00,0.0069
1794.00,0.0070
1793.00,0.0070
1792.00,0.0070
1791.00,0.0069
1790.00,0.0069
1789.00,0.0070
1788.00,0.0071
1787.00,0.0071
1786.00,0.0070
1785.00,0.0070
1784.00,0.0069
1783.00,0.0070
1782.00,0.0070
1781.00,0.0070
1780.00,0.0070
1779.00,0.0070
1778.00,0.0069
1777.00,0.0069
1776.00,0.0069
1775.00,0.0069
1774.00,0.0069
1773.00,0.0070
1772.00,0.0071
1771.00,0.0071
1770.00,0.0070
1769.00,0.0070
1768.00,0.0069
1767.00,0.0069
1766.00,0.0069
1765.00,0.0070
1764.00,0.0070
1763.00,0.0070
1762.00,0.0070
1761.00,0.0070
1760.00,0.0071
1759.00,0.0073
1758.00,0.0074
1757.00,0.0076
1756.00,0.0078
1755.00,0.0080
1754.00,0.0081
1753.00,0.0083
1752.00,0.0085
1751.00,0.0088
1750.00,0.0090
1749.00,0.0093
1748.00,0.0097
1747.00,0.0100
1746.00,0.0102
1745.00,0.0104
1744.00,0.0106
1743.00,0.0107
1742.00,0.0109
1741.00,0.0111
1740.00,0.0113
1739.00,0.0115
1738.00,0.0115
1737.00,0.0114
1736.00,0.0115
1735.00,0.0117
1734.00,0.0118
1733.00,0.0118
1732.00,0.0119
1731.00,0.0120
1730.00,0.0121
1729.00,0.0123
1728.00,0.0125
1727.00,0.0127
1726.00,0.0128
1725.00,0.0130
1724.00,0.0132
1723.00,0.0133
1722.00,0.0135
1721.00,0.0136
1720.00,0.0138
1719.00,0.0140
1718.00,0.0142
1717.00,0.0145
1716.00,0.0149
1715.00,0.0152
1714.00,0.0156
1713.00,0.0160
1712.00,0.0164
1711.00,0.0168
1710.00,0.0172
1709.00,0.0176
1708.00,0.0181
1707.00,0.0187
1706.00,0.0193
1705.00,0.0200
1704.00,0.0206
1703.00,0.0211
1702.00,0.0217
1701.00,0.0228
1700.00,0.0244
1699.00,0.0257
1698.00,0.0267
1697.00,0.0278
1696.00,0.0293
1695.00,0.0310
1694.00,0.0325
1693.00,0.0338
1692.00,0.0351
1691.00,0.0365
1690.00,0.0380
1689.00,0.0396
1688.00,0.0410
1687.00,0.0423
1686.00,0.0437
1685.00,0.0457
1684.00,0.0482
1683.00,0.0505
1682.00,0.0523
1681.00,0.0538
1680.00,0.0553
1679.00,0.0568
1678.00,0.0583
1677.00,0.0597
1676.00,0.0616
1675.00,0.0637
1674.00,0.0657
1673.00,0.0675
1672.00,0.0690
1671.00,0.0707
1670.00,0.0726
1669.00,0.0748
1668.00,0.0770
1667.00,0.0788
1666.00,0.0804
1665.00,0.0819
1664.00,0.0837
1663.00,0.0858
1662.00,0.0881
1661.00,0.0903
1660.00,0.0921
1659.00,0.0938
1658.00,0.0952
1657.00,0.0964
1656.00,0.0972
1655.00,0.0979
1654.00,0.0992
1653.00,0.1016
1652.00,0.1043
1651.00,0.1059
1650.00,0.1064
1649.00,0.1064
1648.00,0.1065
1647.00,0.1070
1646.00,0.1078
1645.00,0.1086
1644.00,0.1091
1643.00,0.1093
1642.00,0.1091
1641.00,0.1089
1640.00,0.1087
1639.00,0.1084
1638.00,0.1080
1637.00,0.1074
1636.00,0.1071
1635.00,0.1070
1634.00,0.1068
1633.00,0.1062
1632.00,0.1052
1631.00,0.1040
1630.00,0.1026
1629.00,0.1012
1628.00,0.0997
1627.00,0.0983
1626.00,0.0969
1625.00,0.0953
1624.00,0.0935
1623.00,0.0917
1622.00,0.0899
1621.00,0.0882
1620.00,0.0866
1619.00,0.0847
1618.00,0.0827
1617.00,0.0807
1616.00,0.0788
1615.00,0.0771
1614.00,0.0754
1613.00,0.0737
1612.00,0.0718
1611.00,0.0699
1610.00,0.0680
1609.00,0.0662
1608.00,0.0644
1607.00,0.0627
1606.00,0.0611
1605.00,0.0596
1604.00,0.0581
1603.00,0.0566
1602.00,0.0551
1601.00,0.0537
1600.00,0.0524
1599.00,0.0511
1598.00,0.0499
1597.00,0.0487
1596.00,0.0476
1595.00,0.0465
1594.00,0.0455
1593.00,0.0446
1592.00,0.0436
1591.00,0.0427
1590.00,0.0419
1589.00,0.0411
1588.00,0.0404
1587.00,0.0397
1586.00,0.0391
1585.00,0.0386
1584.00,0.0381
1583.00,0.0376
1582.00,0.0372
1581.00,0.0369
1580.00,0.0365
1579.00,0.0361
1578.00,0.0359
1577.00,0.0358
1576.00,0.0358
1575.00,0.0359
1574.00,0.0360
1573.00,0.0360
1572.00,0.0359
1571.00,0.0358
1570.00,0.0359
1569.00,0.0362
1568.00,0.0365
1567.00,0.0367
1566.00,0.0370
1565.00,0.0373
1564.00,0.0375
1563.00,0.0377
1562.00,0.0378
1561.00,0.0379
1560.00,0.0383
1559.00,0.0395
1558.00,0.0409
1557.00,0.0419
1556.00,0.0424
1555.00,0.0428
1554.00,0.0433
1553.00,0.0438
1552.00,0.0441
1551.00,0.0444
1550.00,0.0447
1549.00,0.0449
1548.00,0.0451
1547.00,0.0451
1546.00,0.0450
1545.00,0.0447
1544.00,0.0444
1543.00,0.0441
1542.00,0.0438
1541.00,0.0435
1540.00,0.0432
1539.00,0.0429
1538.00,0.0426
1537.00,0.0420
1536.00,0.0413
1535.00,0.0404
1534.00,0.0395
1533.00,0.0387
1532.00,0.0379
1531.00,0.0373
1530.00,0.0367
1529.00,0.0359
1528.00,0.0350
1527.00,0.0342
1526.00,0.0334
1525.00,0.0327
1524.00,0.0320
1523.00,0.0313
1522.00,0.0306
1521.00,0.0300
1520.00,0.0296
1519.00,0.0291
1518.00,0.0285
1517.00,0.0278
1516.00,0.0269
1515.00,0.0261
1514.00,0.0253
1513.00,0.0243
1512.00,0.0233
1511.00,0.0222
1510.00,0.0211
1509.00,0.0200
1508.00,0.0190
1507.00,0.0181
1506.00,0.0175
1505.00,0.0170
1504.00,0.0164
1503.00,0.0158
1502.00,0.0150
1501.00,0.0143
1500.00,0.0137
1499.00,0.0131
1498.00,0.0125
1497.00,0.0120
1496.00,0.0116
1495.00,0.0112
1494.00,0.0109
1493.00,0.0106
1492.00,0.0103
1491.00,0.0099
1490.00,0.0096
1489.00,0.0093
1488.00,0.0092
1487.00,0.0093
1486.00,0.0093
1485.00,0.0094
1484.00,0.0095
1483.00,0.0096
1482.00,0.0098
1481.00,0.0101
1480.00,0.0103
1479.00,0.0106
1478.00,0.0109
1477.00,0.0112
1476.00,0.0115
1475.00,0.0120
1474.00,0.0125
1473.00,0.0133
1472.00,0.0142
1471.00,0.0149
1470.00,0.0154
1469.00,0.0158
1468.00,0.0160
1467.00,0.0162
1466.00,0.0163
1465.00,0.0167
1464.00,0.0170
1463.00,0.0174
1462.00,0.0176
1461.00,0.0178
1460.00,0.0178
1459.00,0.0178
1458.00,0.0181
1457.00,0.0186
1456.00,0.0192
1455.00,0.0197
1454.00,0.0199
1453.00,0.0199
1452.00,0.0199
1451.00,0.0199
1450.00,0.0199
1449.00,0.0199
1448.00,0.0199
1447.00,0.0200
1446.00,0.0201
1445.00,0.0202
1444.00,0.0203
1443.00,0.0203
1442.00,0.0204
1441.00,0.0204
1440.00,0.0205
1439.00,0.0204
1438.00,0.0204
1437.00,0.0205
1436.00,0.0207
1435.00,0.0210
1434.00,0.0212
1433.00,0.0213
1432.00,0.0214
1431.00,0.0215
1430.00,0.0217
1429.00,0.0220
1428.00,0.0222
1427.00,0.0224
1426.00,0.0226
1425.00,0.0227
1424.00,0.0229
1423.00,0.0230
1422.00,0.0230
1421.00,0.0230
1420.00,0.0231
1419.00,0.0231
1418.00,0.0233
1417.00,0.0234
1416.00,0.0235
1415.00,0.0235
1414.00,0.0234
1413.00,0.0233
1412.00,0.0231
1411.00,0.0228
1410.00,0.0226
1409.00,0.0223
1408.00,0.0221
1407.00,0.0218
1406.00,0.0214
1405.00,0.0211
1404.00,0.0208
1403.00,0.0204
1402.00,0.0200
1401.00,0.0196
1400.00,0.0190
1399.00,0.0185
1398.00,0.0181
1397.00,0.0176
1396.00,0.0172
1395.00,0.0168
1394.00,0.0166
1393.00,0.0164
1392.00,0.0164
1391.00,0.0163
1390.00,0.0162
1389.00,0.0162
1388.00,0.0164
1387.00,0.0167
1386.00,0.0171
1385.00,0.0175
1384.00,0.0179
1383.00,0.0183
1382.00,0.0187
1381.00,0.0191
1380.00,0.0194
1379.00,0.0195
1378.00,0.0196
1377.00,0.0196
1376.00,0.0195
1375.00,0.0193
1374.00,0.0190
1373.00,0.0187
1372.00,0.0185
1371.00,0.0182
1370.00,0.0179
1369.00,0.0175
1368.00,0.0170
1367.00,0.0166
1366.00,0.0162
1365.00,0.0157
1364.00,0.0153
1363.00,0.0149
1362.00,0.0146
1361.00,0.0145
1360.00,0.0144
1359.00,0.0144
1358.00,0.0143
1357.00,0.0142
1356.00,0.0141
1355.00,0.0140
1354.00,0.0138
1353.00,0.0136
1352.00,0.0134
1351.00,0.0131
1350.00,0.0128
1349.00,0.0124
1348.00,0.0120
1347.00,0.0116
1346.00,0.0112
1345.00,0.0108
1344.00,0.0104
1343.00,0.0100
1342.00,0.0097
1341.00,0.0093
1340.00,0.0089
1339.00,0.0086
1338.00,0.0084
1337.00,0.0083
1336.00,0.0081
1335.00,0.0080
1334.00,0.0078
1333.00,0.0076
1332.00,0.0074
1331.00,0.0072
1330.00,0.0071
1329.00,0.0071
1328.00,0.0070
1327.00,0.0070
1326.00,0.0070
1325.00,0.0070
1324.00,0.0070
1323.00,0.0070
1322.00,0.0070
1321.00,0.0070
1320.00,0.0070
1319.00,0.0070
1318.00,0.0070
1317.00,0.0070
1316.00,0.0070
1315.00,0.0070
1314.00,0.0069
1313.00,0.0069
1312.00,0.0070
1311.00,0.0070
1310.00,0.0071
1309.00,0.0071
1308.00,0.0071
1307.00,0.0072
1306.00,0.0073
1305.00,0.0075
1304.00,0.0078
1303.00,0.0081
1302.00,0.0084
1301.00,0.0088
1300.00,0.0093
1299.00,0.0098
1298.00,0.0104
1297.00,0.0111
1296.00,0.0119
1295.00,0.0128
1294.00,0.0137
1293.00,0.0147
1292.00,0.0158
1291.00,0.0169
1290.00,0.0182
1289.00,0.0195
1288.00,0.0209
1287.00,0.0224
1286.00,0.0240
1285.00,0.0256
1284.00,0.0274
1283.00,0.0292
1282.00,0.0310
1281.00,0.0330
1280.00,0.0351
1279.00,0.0372
1278.00,0.0394
1277.00,0.0417
1276.00,0.0440
1275.00,0.0463
1274.00,0.0487
1273.00,0.0511
1272.00,0.0536
1271.00,0.0560
1270.00,0.0584
1269.00,0.0607
1268.00,0.0629
1267.00,0.0650
1266.00,0.0670
1265.00,0.0690
1264.00,0.0709
1263.00,0.0727
1262.00,0.0744
1261.00,0.0760
1260.00,0.0775
1259.00,0.0789
1258.00,0.0802
1257.00,0.0814
1256.00,0.0826
1255.00,0.0836
1254.00,0.0845
1253.00,0.0854
1252.00,0.0862
1251.00,0.0869
1250.00,0.0875
1249.00,0.0881
1248.00,0.0886
1247.00,0.0891
1246.00,0.0896
1245.00,0.0901
1244.00,0.0906
1243.00,0.0911
1242.00,0.0916
1241.00,0.0923
1240.00,0.0930
1239.00,0.0938
1238.00,0.0947
1237.00,0.0956
1236.00,0.0965
1235.00,0.0975
1234.00,0.0985
1233.00,0.0994
1232.00,0.1004
1231.00,0.1014
1230.00,0.1023
1229.00,0.1031
1228.00,0.1038
1227.00,0.1045
1226.00,0.1050
1225.00,0.1055
1224.00,0.1060
1223.00,0.1063
1222.00,0.1065
1221.00,0.1065
1220.00,0.1064
1219.00,0.1062
1218.00,0.1058
1217.00,0.1053
1216.00,0.1046
1215.00,0.1038
1214.00,0.1027
1213.00,0.1015
1212.00,0.1001
1211.00,0.0987
1210.00,0.0971
1209.00,0.0956
1208.00,0.0940
1207.00,0.0924
1206.00,0.0907
1205.00,0.0891
1204.00,0.0875
1203.00,0.0860
1202.00,0.0847
1201.00,0.0835
1200.00,0.0826
1199.00,0.0819
1198.00,0.0814
1197.00,0.0810
1196.00,0.0807
1195.00,0.0804
1194.00,0.0799
1193.00,0.0793
1192.00,0.0783
1191.00,0.0770
1190.00,0.0753
1189.00,0.0732
1188.00,0.0710
1187.00,0.0686
1186.00,0.0663
1185.00,0.0642
1184.00,0.0623
1183.00,0.0606
1182.00,0.0592
1181.00,0.0582
1180.00,0.0576
1179.00,0.0573
1178.00,0.0572
1177.00,0.0574
1176.00,0.0579
1175.00,0.0585
1174.00,0.0594
1173.00,0.0606
1172.00,0.0619
1171.00,0.0636
1170.00,0.0655
1169.00,0.0676
1168.00,0.0699
1167.00,0.0724
1166.00,0.0750
1165.00,0.0777
1164.00,0.0804
1163.00,0.0831
1162.00,0.0856
1161.00,0.0880
1160.00,0.0901
1159.00,0.0920
1158.00,0.0935
1157.00,0.0948
1156.00,0.0957
1155.00,0.0963
1154.00,0.0966
1153.00,0.0966
1152.00,0.0963
1151.00,0.0958
1150.00,0.0949
1149.00,0.0938
1148.00,0.0925
1147.00,0.0910
1146.00,0.0894
1145.00,0.0877
1144.00,0.0860
1143.00,0.0844
1142.00,0.0830
1141.00,0.0818
1140.00,0.0808
1139.00,0.0801
1138.00,0.0796
1137.00,0.0793
1136.00,0.0793
1135.00,0.0795
1134.00,0.0801
1133.00,0.0809
1132.00,0.0821
1131.00,0.0836
1130.00,0.0854
1129.00,0.0874
1128.00,0.0895
1127.00,0.0914
1126.00,0.0927
1125.00,0.0933
1124.00,0.0930
1123.00,0.0920
1122.00,0.0905
1121.00,0.0887
1120.00,0.0869
1119.00,0.0852
1118.00,0.0836
1117.00,0.0823
1116.00,0.0812
1115.00,0.0802
1114.00,0.0795
1113.00,0.0789
1112.00,0.0786
1111.00,0.0785
1110.00,0.0785
1109.00,0.0788
1108.00,0.0794
1107.00,0.0802
1106.00,0.0813
1105.00,0.0827
1104.00,0.0845
1103.00,0.0864
1102.00,0.0886
1101.00,0.0910
1100.00,0.0935
1099.00,0.0962
1098.00,0.0988
1097.00,0.1013
1096.00,0.1038
1095.00,0.1060
1094.00,0.1081
1093.00,0.1102
1092.00,0.1121
1091.00,0.1139
1090.00,0.1157
1089.00,0.1176
1088.00,0.1197
1087.00,0.1220
1086.00,0.1245
1085.00,0.1272
1084.00,0.1302
1083.00,0.1333
1082.00,0.1366
1081.00,0.1402
1080.00,0.1439
1079.00,0.1477
1078.00,0.1514
1077.00,0.1551
1076.00,0.1587
1075.00,0.1622
1074.00,0.1655
1073.00,0.1687
1072.00,0.1717
1071.00,0.1745
1070.00,0.1770
1069.00,0.1791
1068.00,0.1808
1067.00,0.1819
1066.00,0.1823
1065.00,0.1820
1064.00,0.1810
1063.00,0.1793
1062.00,0.1771
1061.00,0.1748
1060.00,0.1724
1059.00,0.1703
1058.00,0.1685
1057.00,0.1671
1056.00,0.1662
1055.00,0.1657
1054.00,0.1657
1053.00,0.1662
1052.00,0.1671
1051.00,0.1684
1050.00,0.1700
1049.00,0.1720
1048.00,0.1743
1047.00,0.1769
1046.00,0.1796
1045.00,0.1824
1044.00,0.1852
1043.00,0.1878
1042.00,0.1901
1041.00,0.1920
1040.00,0.1935
1039.00,0.1944
1038.00,0.1949
1037.00,0.1949
1036.00,0.1946
1035.00,0.1939
1034.00,0.1931
1033.00,0.1923
1032.00,0.1916
1031.00,0.1908
1030.00,0.1898
1029.00,0.1884
1028.00,0.1867
1027.00,0.1843
1026.00,0.1812
1025.00,0.1775
1024.00,0.1732
1023.00,0.1684
1022.00,0.1631
1021.00,0.1576
1020.00,0.1520
1019.00,0.1464
1018.00,0.1410
1017.00,0.1359
1016.00,0.1311
1015.00,0.1267
1014.00,0.1227
1013.00,0.1193
1012.00,0.1166
1011.00,0.1145
1010.00,0.1128
1009.00,0.1115
1008.00,0.1105
1007.00,0.1094
1006.00,0.1083
1005.00,0.1069
1004.00,0.1052
1003.00,0.1028
1002.00,0.0998
1001.00,0.0961
1000.00,0.0918
999.00,0.0871
998.00,0.0825
997.00,0.0781
996.00,0.0742
995.00,0.0708
994.00,0.0681
993.00,0.0659
992.00,0.0639
991.00,0.0622
990.00,0.0606
989.00,0.0591
988.00,0.0574
987.00,0.0557
986.00,0.0539
985.00,0.0520
984.00,0.0503
983.00,0.0487
982.00,0.0475
981.00,0.0465
980.00,0.0459
979.00,0.0456
978.00,0.0455
977.00,0.0455
976.00,0.0456
975.00,0.0456
974.00,0.0456
973.00,0.0456
972.00,0.0455
971.00,0.0452
970.00,0.0445
969.00,0.0434
968.00,0.0416
967.00,0.0391
966.00,0.0360
965.00,0.0325
964.00,0.0287
963.00,0.0249
962.00,0.0212
961.00,0.0178
960.00,0.0148
959.00,0.0123
958.00,0.0102
957.00,0.0086
956.00,0.0074
955.00,0.0065
954.00,0.0060
953.00,0.0058
952.00,0.0058
951.00,0.0061
950.00,0.0067
949.00,0.0076
948.00,0.0088
947.00,0.0103
946.00,0.0121
945.00,0.0143
944.00,0.0169
943.00,0.0200
942.00,0.0236
941.00,0.0278
940.00,0.0325
939.00,0.0377
938.00,0.0432
937.00,0.0490
936.00,0.0547
935.00,0.0603
934.00,0.0655
933.00,0.0701
932.00,0.0741
931.00,0.0774
930.00,0.0800
929.00,0.0820
928.00,0.0833
927.00,0.0839
926.00,0.0839
925.00,0.0834
924.00,0.0824
923.00,0.0810
922.00,0.0793
921.00,0.0774
920.00,0.0751
919.00,0.0726
918.00,0.0699
917.00,0.0670
916.00,0.0639
915.00,0.0607
914.00,0.0574
913.00,0.0539
912.00,0.0505
911.00,0.0471
910.00,0.0440
909.00,0.0411
908.00,0.0385
907.00,0.0361
906.00,0.0341
905.00,0.0324
904.00,0.0310
903.00,0.0299
902.00,0.0289
901.00,0.0282
900.00,0.0276
899.00,0.0272
898.00,0.0269
897.00,0.0269
896.00,0.0270
895.00,0.0271
894.00,0.0271
893.00,0.0272
892.00,0.0273
891.00,0.0272
890.00,0.0270
889.00,0.0266
888.00,0.0257
887.00,0.0244
886.00,0.0227
885.00,0.0207
884.00,0.0184
883.00,0.0159
882.00,0.0133
881.00,0.0109
880.00,0.0089
879.00,0.0074
878.00,0.0064
877.00,0.0060
876.00,0.0060
875.00,0.0063
874.00,0.0068
873.00,0.0073
872.00,0.0076
871.00,0.0078
870.00,0.0079
869.00,0.0079
868.00,0.0080
867.00,0.0082
866.00,0.0086
865.00,0.0091
864.00,0.0100
863.00,0.0112
862.00,0.0128
861.00,0.0146
860.00,0.0167
859.00,0.0191
858.00,0.0218
857.00,0.0249
856.00,0.0282
855.00,0.0318
854.00,0.0354
853.00,0.0390
852.00,0.0426
851.00,0.0459
850.00,0.0489
849.00,0.0514
848.00,0.0532
847.00,0.0544
846.00,0.0548
845.00,0.0544
844.00,0.0531
843.00,0.0510
842.00,0.0483
841.00,0.0452
840.00,0.0417
839.00,0.0381
838.00,0.0344
837.00,0.0309
836.00,0.0275
835.00,0.0244
834.00,0.0215
833.00,0.0189
832.00,0.0167
831.00,0.0147
830.00,0.0130
829.00,0.0115
828.00,0.0102
827.00,0.0091
826.00,0.0083
825.00,0.0077
824.00,0.0073
823.00,0.0071
822.00,0.0069
821.00,0.0067
820.00,0.0066
819.00,0.0065
818.00,0.0064
817.00,0.0064
816.00,0.0066
815.00,0.0068
814.00,0.0072
813.00,0.0077
812.00,0.0083
811.00,0.0091
810.00,0.0100
809.00,0.0109
808.00,0.0117
807.00,0.0123
806.00,0.0127
805.00,0.0131
804.00,0.0134
803.00,0.0136
802.00,0.0137
801.00,0.0136
800.00,0.0134
799.00,0.0131
798.00,0.0127
797.00,0.0122
796.00,0.0116
795.00,0.0109
794.00,0.0101
793.00,0.0093
792.00,0.0087
791.00,0.0081
790.00,0.0076
789.00,0.0071
788.00,0.0068
787.00,0.0066
786.00,0.0064
785.00,0.0063
784.00,0.0063
783.00,0.0065
782.00,0.0067
781.00,0.0072
780.00,0.0077
779.00,0.0085
778.00,0.0093
777.00,0.0102
776.00,0.0111
775.00,0.0118
774.00,0.0124
773.00,0.0127
772.00,0.0128
771.00,0.0125
770.00,0.0120
769.00,0.0112
768.00,0.0104
767.00,0.0095
766.00,0.0088
765.00,0.0082
764.00,0.0076
763.00,0.0070
762.00,0.0066
761.00,0.0064
760.00,0.0063
759.00,0.0064
758.00,0.0066
757.00,0.0070
756.00,0.0075
755.00,0.0082
754.00,0.0092
753.00,0.0105
752.00,0.0119
751.00,0.0135
750.00,0.0153
749.00,0.0174
748.00,0.0195
747.00,0.0217
746.00,0.0236
745.00,0.0253
744.00,0.0267
743.00,0.0280
742.00,0.0291
741.00,0.0302
740.00,0.0311
739.00,0.0319
738.00,0.0326
737.00,0.0332
736.00,0.0335
735.00,0.0336
734.00,0.0334
733.00,0.0330
732.00,0.0326
731.00,0.0321
730.00,0.0316
729.00,0.0313
728.00,0.0312
727.00,0.0310
726.00,0.0309
725.00,0.0306
724.00,0.0303
723.00,0.0299
722.00,0.0294
721.00,0.0289
720.00,0.0283
719.00,0.0278
718.00,0.0275
717.00,0.0274
716.00,0.0275
715.00,0.0279
714.00,0.0285
713.00,0.0293
712.00,0.0304
711.00,0.0318
710.00,0.0333
709.00,0.0350
708.00,0.0368
707.00,0.0385
706.00,0.0403
705.00,0.0418
704.00,0.0431
703.00,0.0439
702.00,0.0444
701.00,0.0446
700.00,0.0445
699.00,0.0440
698.00,0.0430
697.00,0.0418
696.00,0.0402
695.00,0.0383
694.00,0.0364
693.00,0.0344
692.00,0.0323
691.00,0.0302
690.00,0.0281
689.00,0.0262
688.00,0.0246
687.00,0.0232
686.00,0.0218
685.00,0.0206
684.00,0.0194
683.00,0.0183
682.00,0.0174
681.00,0.0167
680.00,0.0162
679.00,0.0159
678.00,0.0157
677.00,0.0157
676.00,0.0158
675.00,0.0160
674.00,0.0162
673.00,0.0164
672.00,0.0165
671.00,0.0164
670.00,0.0161
669.00,0.0160
668.00,0.0163
667.00,0.0169
666.00,0.0174
665.00,0.0176
664.00,0.0177
663.00,0.0181
662.00,0.0190
661.00,0.0202
660.00,0.0217
659.00,0.0232
658.00,0.0243
657.00,0.0248
656.00,0.0244
655.00,0.0233
654.00,0.0219
653.00,0.0204
652.00,0.0192
651.00,0.0182
650.00,0.0174
649.00,0.0167
648.00,0.0163
647.00,0.0162
646.00,0.0164
645.00,0.0166
644.00,0.0166
643.00,0.0160
642.00,0.0150
641.00,0.0139
640.00,0.0127
639.00,0.0118
638.00,0.0112
637.00,0.0109
636.00,0.0109
635.00,0.0111
634.00,0.0115
633.00,0.0120
632.00,0.0124
631.00,0.0127
630.00,0.0130
629.00,0.0135
628.00,0.0143
627.00,0.0153
626.00,0.0165
625.00,0.0177
624.00,0.0189
623.00,0.0200
622.00,0.0211
621.00,0.0225
620.00,0.0240
619.00,0.0255
618.00,0.0270
617.00,0.0285
616.00,0.0301
615.00,0.0317
614.00,0.0330
613.00,0.0343
612.00,0.0358
611.00,0.0377
610.00,0.0396
609.00,0.0414
608.00,0.0433
607.00,0.0451
606.00,0.0470
605.00,0.0488
604.00,0.0503
603.00,0.0513
602.00,0.0518
601.00,0.0520
600.00,0.0522
599.00,0.0524
598.00,0.0525
597.00,0.0526
596.00,0.0523
595.00,0.0518
594.00,0.0509
593.00,0.0499
592.00,0.0491
591.00,0.0485
590.00,0.0481
589.00,0.0479
588.00,0.0479
587.00,0.0479
586.00,0.0480
585.00,0.0483
584.00,0.0489
583.00,0.0495
582.00,0.0502
581.00,0.0508
580.00,0.0513
579.00,0.0516
578.00,0.0516
577.00,0.0516
576.00,0.0516
575.00,0.0514
574.00,0.0510
573.00,0.0503
572.00,0.0497
571.00,0.0490
570.00,0.0482
569.00,0.0473
568.00,0.0464
567.00,0.0454
566.00,0.0444
565.00,0.0433
564.00,0.0424
563.00,0.0416
562.00,0.0410
561.00,0.0406
560.00,0.0402
559.00,0.0397
558.00,0.0392
557.00,0.0386
556.00,0.0381
555.00,0.0375
554.00,0.0367
553.00,0.0359
552.00,0.0354
551.00,0.0353
550.00,0.0355
549.00,0.0359
548.00,0.0363
547.00,0.0367
546.00,0.0372
545.00,0.0376
544.00,0.0381
543.00,0.0385
542.00,0.0390
541.00,0.0396
540.00,0.0401
539.00,0.0400
538.00,0.0395
537.00,0.0388
536.00,0.0383
535.00,0.0380
534.00,0.0376
533.00,0.0372
532.00,0.0365
531.00,0.0358
530.00,0.0350
529.00,0.0345
528.00,0.0343
527.00,0.0342
526.00,0.0342
525.00,0.0344
524.00,0.0345
523.00,0.0347
522.00,0.0350
521.00,0.0354
520.00,0.0359
519.00,0.0361
518.00,0.0358
517.00,0.0352
516.00,0.0344
515.00,0.0335
514.00,0.0325
513.00,0.0313
512.00,0.0301
511.00,0.0289
510.00,0.0278
509.00,0.0269
508.00,0.0261
507.00,0.0252
506.00,0.0244
505.00,0.0237
504.00,0.0232
503.00,0.0225
502.00,0.0214
501.00,0.0204
500.00,0.0197
499.00,0.0194
498.00,0.0192
497.00,0.0193
496.00,0.0196
495.00,0.0197
494.00,0.0196
493.00,0.0193
492.00,0.0191
491.00,0.0191
490.00,0.0190
489.00,0.0189
488.00,0.0188
487.00,0.0185
486.00,0.0179
485.00,0.0176
484.00,0.0179
483.00,0.0188
482.00,0.0199
481.00,0.0210
480.00,0.0218
479.00,0.0221
478.00,0.0218
477.00,0.0210
476.00,0.0203
475.00,0.0199
474.00,0.0198
473.00,0.0200
472.00,0.0203
471.00,0.0204
470.00,0.0202
469.00,0.0201
468.00,0.0201
467.00,0.0199
466.00,0.0191
465.00,0.0183
464.00,0.0177
463.00,0.0174
462.00,0.0171
461.00,0.0169
460.00,0.0167
459.00,0.0165
458.00,0.0159
457.00,0.0161
456.00,0.0148
455.00,0.0125
454.00,0.0100
453.00,0.0079
452.00,0.0070
451.00,0.0069
450.00,0.0070
