Created as New Dataset,Sample 012 By Administrator Date Thursday, May 29 2025
cm-1,A
4000.00,0.0100
3999.00,0.0100
3998.00,0.0100
3997.00,0.0100
3996.00,0.0101
3995.00,0.0100
3994.00,0.0099
3993.00,0.0099
3992.00,0.0099
3991.00,0.0099
3990.00,0.0099
3989.00,0.0100
3988.00,0.0100
3987.00,0.0100
3986.00,0.0100
3985.00,0.0100
3984.00,0.0099
3983.00,0.0099
3982.00,0.0099
3981.00,0.0100
3980.00,0.0100
3979.00,0.0100
3978.00,0.0101
3977.00,0.0100
3976.00,0.0100
3975.00,0.0100
3974.00,0.0099
3973.00,0.0099
3972.00,0.0099
3971.00,0.0099
3970.00,0.0099
3969.00,0.0099
3968.00,0.0100
3967.00,0.0100
3966.00,0.0100
3965.00,0.0100
3964.00,0.0100
3963.00,0.0100
3962.00,0.0100
3961.00,0.0100
3960.00,0.0100
3959.00,0.0100
3958.00,0.0101
3957.00,0.0101
3956.00,0.0100
3955.00,0.0100
3954.00,0.0100
3953.00,0.0100
3952.00,0.0100
3951.00,0.0100
3950.00,0.0100
3949.00,0.0100
3948.00,0.0100
3947.00,0.0101
3946.00,0.0101
3945.00,0.0101
3944.00,0.0101
3943.00,0.0101
3942.00,0.0101
3941.00,0.0101
3940.00,0.0101
3939.00,0.0100
3938.00,0.0100
3937.00,0.0100
3936.00,0.0101
3935.00,0.0101
3934.00,0.0101
3933.00,0.0101
3932.00,0.0101
3931.00,0.0101
3930.00,0.0101
3929.00,0.0101
3928.00,0.0101
3927.00,0.0101
3926.00,0.0101
3925.00,0.0101
3924.00,0.0101
3923.00,0.0101
3922.00,0.0101
3921.00,0.0101
3920.00,0.0101
3919.00,0.0101
3918.00,0.0101
3917.00,0.0100
3916.00,0.0100
3915.00,0.0099
3914.00,0.0099
3913.00,0.0099
3912.00,0.0099
3911.00,0.0099
3910.00,0.0099
3909.00,0.0100
3908.00,0.0100
3907.00,0.0100
3906.00,0.0101
3905.00,0.0101
3904.00,0.0102
3903.00,0.0102
3902.00,0.0102
3901.00,0.0101
3900.00,0.0100
3899.00,0.0099
3898.00,0.0099
3897.00,0.0099
3896.00,0.0099
3895.00,0.0100
3894.00,0.0100
3893.00,0.0100
3892.00,0.0100
3891.00,0.0100
3890.00,0.0100
3889.00,0.0100
3888.00,0.0100
3887.00,0.0100
3886.00,0.0100
3885.00,0.0100
3884.00,0.0100
3883.00,0.0100
3882.00,0.0100
3881.00,0.0100
3880.00,0.0099
3879.00,0.0099
3878.00,0.0099
3877.00,0.0100
3876.00,0.0100
3875.00,0.0100
3874.00,0.0101
3873.00,0.0101
3872.00,0.0102
3871.00,0.0102
3870.00,0.0102
3869.00,0.0101
3868.00,0.0101
3867.00,0.0101
3866.00,0.0101
3865.00,0.0100
3864.00,0.0100
3863.00,0.0100
3862.00,0.0100
3861.00,0.0100
3860.00,0.0100
3859.00,0.0100
3858.00,0.0099
3857.00,0.0099
3856.00,0.0099
3855.00,0.0099
3854.00,0.0098
3853.00,0.0097
3852.00,0.0096
3851.00,0.0096
3850.00,0.0096
3849.00,0.0097
3848.00,0.0098
3847.00,0.0099
3846.00,0.0100
3845.00,0.0100
3844.00,0.0101
3843.00,0.0101
3842.00,0.0101
3841.00,0.0101
3840.00,0.0101
3839.00,0.0100
3838.00,0.0100
3837.00,0.0099
3836.00,0.0098
3835.00,0.0098
3834.00,0.0099
3833.00,0.0099
3832.00,0.0099
3831.00,0.0099
3830.00,0.0099
3829.00,0.0100
3828.00,0.0100
3827.00,0.0100
3826.00,0.0100
3825.00,0.0101
3824.00,0.0101
3823.00,0.0102
3822.00,0.0101
3821.00,0.0100
3820.00,0.0100
3819.00,0.0100
3818.00,0.0100
3817.00,0.0100
3816.00,0.0099
3815.00,0.0099
3814.00,0.0099
3813.00,0.0100
3812.00,0.0100
3811.00,0.0101
3810.00,0.0101
3809.00,0.0102
3808.00,0.0102
3807.00,0.0102
3806.00,0.0102
3805.00,0.0102
3804.00,0.0102
3803.00,0.0101
3802.00,0.0101
3801.00,0.0100
3800.00,0.0100
3799.00,0.0101
3798.00,0.0101
3797.00,0.0101
3796.00,0.0100
3795.00,0.0099
3794.00,0.0099
3793.00,0.0099
3792.00,0.0099
3791.00,0.0100
3790.00,0.0101
3789.00,0.0101
3788.00,0.0102
3787.00,0.0102
3786.00,0.0102
3785.00,0.0101
3784.00,0.0102
3783.00,0.0103
3782.00,0.0103
3781.00,0.0104
3780.00,0.0104
3779.00,0.0103
3778.00,0.0103
3777.00,0.0103
3776.00,0.0103
3775.00,0.0103
3774.00,0.0103
3773.00,0.0104
3772.00,0.0104
3771.00,0.0104
3770.00,0.0103
3769.00,0.0103
3768.00,0.0104
3767.00,0.0104
3766.00,0.0105
3765.00,0.0105
3764.00,0.0105
3763.00,0.0105
3762.00,0.0106
3761.00,0.0107
3760.00,0.0107
3759.00,0.0108
3758.00,0.0108
3757.00,0.0108
3756.00,0.0109
3755.00,0.0109
3754.00,0.0109
3753.00,0.0109
3752.00,0.0109
3751.00,0.0110
3750.00,0.0110
3749.00,0.0110
3748.00,0.0110
3747.00,0.0110
3746.00,0.0110
3745.00,0.0109
3744.00,0.0109
3743.00,0.0109
3742.00,0.0110
3741.00,0.0110
3740.00,0.0111
3739.00,0.0112
3738.00,0.0113
3737.00,0.0113
3736.00,0.0113
3735.00,0.0113
3734.00,0.0113
3733.00,0.0113
3732.00,0.0113
3731.00,0.0113
3730.00,0.0113
3729.00,0.0113
3728.00,0.0113
3727.00,0.0114
3726.00,0.0114
3725.00,0.0115
3724.00,0.0116
3723.00,0.0116
3722.00,0.0116
3721.00,0.0115
3720.00,0.0115
3719.00,0.0115
3718.00,0.0116
3717.00,0.0116
3716.00,0.0118
3715.00,0.0119
3714.00,0.0120
3713.00,0.0122
3712.00,0.0123
3711.00,0.0123
3710.00,0.0123
3709.00,0.0122
3708.00,0.0122
3707.00,0.0122
3706.00,0.0123
3705.00,0.0123
3704.00,0.0124
3703.00,0.0125
3702.00,0.0126
3701.00,0.0127
3700.00,0.0128
3699.00,0.0129
3698.00,0.0131
3697.00,0.0132
3696.00,0.0133
3695.00,0.0135
3694.00,0.0137
3693.00,0.0139
3692.00,0.0140
3691.00,0.0140
3690.00,0.0141
3689.00,0.0143
3688.00,0.0145
3687.00,0.0146
3686.00,0.0148
3685.00,0.0150
3684.00,0.0151
3683.00,0.0153
3682.00,0.0156
3681.00,0.0158
3680.00,0.0160
3679.00,0.0162
3678.00,0.0164
3677.00,0.0167
3676.00,0.0170
3675.00,0.0173
3674.00,0.0175
3673.00,0.0178
3672.00,0.0181
3671.00,0.0183
3670.00,0.0186
3669.00,0.0189
3668.00,0.0192
3667.00,0.0196
3666.00,0.0199
3665.00,0.0202
3664.00,0.0206
3663.00,0.0209
3662.00,0.0213
3661.00,0.0216
3660.00,0.0220
3659.00,0.0223
3658.00,0.0227
3657.00,0.0232
3656.00,0.0237
3655.00,0.0242
3654.00,0.0247
3653.00,0.0251
3652.00,0.0254
3651.00,0.0259
3650.00,0.0264
3649.00,0.0272
3648.00,0.0279
3647.00,0.0286
3646.00,0.0291
3645.00,0.0295
3644.00,0.0300
3643.00,0.0304
3642.00,0.0308
3641.00,0.0313
3640.00,0.0318
3639.00,0.0324
3638.00,0.0330
3637.00,0.0336
3636.00,0.0341
3635.00,0.0347
3634.00,0.0352
3633.00,0.0357
3632.00,0.0362
3631.00,0.0367
3630.00,0.0374
3629.00,0.0382
3628.00,0.0391
3627.00,0.0399
3626.00,0.0405
3625.00,0.0411
3624.00,0.0416
3623.00,0.0420
3622.00,0.0424
3621.00,0.0429
3620.00,0.0435
3619.00,0.0442
3618.00,0.0450
3617.00,0.0458
3616.00,0.0464
3615.00,0.0470
3614.00,0.0476
3613.00,0.0482
3612.00,0.0489
3611.00,0.0495
3610.00,0.0502
3609.00,0.0509
3608.00,0.0516
3607.00,0.0523
3606.00,0.0529
3605.00,0.0535
3604.00,0.0541
3603.00,0.0546
3602.00,0.0550
3601.00,0.0556
3600.00,0.0561
3599.00,0.0567
3598.00,0.0573
3597.00,0.0578
3596.00,0.0584
3595.00,0.0591
3594.00,0.0597
3593.00,0.0603
3592.00,0.0608
3591.00,0.0613
3590.00,0.0618
3589.00,0.0623
3588.00,0.0630
3587.00,0.0638
3586.00,0.0646
3585.00,0.0652
3584.00,0.0658
3583.00,0.0662
3582.00,0.0666
3581.00,0.0670
3580.00,0.0675
3579.00,0.0681
3578.00,0.0687
3577.00,0.0692
3576.00,0.0698
3575.00,0.0703
3574.00,0.0709
3573.00,0.0714
3572.00,0.0718
3571.00,0.0722
3570.00,0.0726
3569.00,0.0731
3568.00,0.0736
3567.00,0.0744
3566.00,0.0752
3565.00,0.0759
3564.00,0.0766
3563.00,0.0771
3562.00,0.0775
3561.00,0.0779
3560.00,0.0784
3559.00,0.0789
3558.00,0.0795
3557.00,0.0799
3556.00,0.0804
3555.00,0.0809
3554.00,0.0814
3553.00,0.0819
3552.00,0.0825
3551.00,0.0830
3550.00,0.0835
3549.00,0.0839
3548.00,0.0844
3547.00,0.0849
3546.00,0.0855
3545.00,0.0861
3544.00,0.0867
3543.00,0.0872
3542.00,0.0877
3541.00,0.0881
3540.00,0.0885
3539.00,0.0890
3538.00,0.0894
3537.00,0.0899
3536.00,0.0904
3535.00,0.0909
3534.00,0.0913
3533.00,0.0917
3532.00,0.0921
3531.00,0.0925
3530.00,0.0929
3529.00,0.0935
3528.00,0.0940
3527.00,0.0946
3526.00,0.0952
3525.00,0.0957
3524.00,0.0962
3523.00,0.0967
3522.00,0.0972
3521.00,0.0976
3520.00,0.0981
3519.00,0.0985
3518.00,0.0990
3517.00,0.0994
3516.00,0.0999
3515.00,0.1004
3514.00,0.1008
3513.00,0.1012
3512.00,0.1016
3511.00,0.1021
3510.00,0.1025
3509.00,0.1030
3508.00,0.1035
3507.00,0.1040
3506.00,0.1044
3505.00,0.1048
3504.00,0.1052
3503.00,0.1057
3502.00,0.1063
3501.00,0.1068
3500.00,0.1073
3499.00,0.1077
3498.00,0.1081
3497.00,0.1085
3496.00,0.1089
3495.00,0.1093
3494.00,0.1097
3493.00,0.1101
3492.00,0.1105
3491.00,0.1109
3490.00,0.1113
3489.00,0.1117
3488.00,0.1122
3487.00,0.1126
3486.00,0.1131
3485.00,0.1135
3484.00,0.1139
3483.00,0.1143
3482.00,0.1148
3481.00,0.1153
3480.00,0.1157
3479.00,0.1161
3478.00,0.1164
3477.00,0.1167
3476.00,0.1170
3475.00,0.1174
3474.00,0.1178
3473.00,0.1182
3472.00,0.1187
3471.00,0.1191
3470.00,0.1196
3469.00,0.1199
3468.00,0.1203
3467.00,0.1206
3466.00,0.1209
3465.00,0.1213
3464.00,0.1216
3463.00,0.1220
3462.00,0.1224
3461.00,0.1228
3460.00,0.1232
3459.00,0.1234
3458.00,0.1237
3457.00,0.1240
3456.00,0.1243
3455.00,0.1246
3454.00,0.1249
3453.00,0.1252
3452.00,0.1255
3451.00,0.1257
3450.00,0.1260
3449.00,0.1263
3448.00,0.1266
3447.00,0.1270
3446.00,0.1274
3445.00,0.1277
3444.00,0.1280
3443.00,0.1283
3442.00,0.1286
3441.00,0.1289
3440.00,0.1292
3439.00,0.1295
3438.00,0.1298
3437.00,0.1301
3436.00,0.1304
3435.00,0.1305
3434.00,0.1307
3433.00,0.1309
3432.00,0.1311
3431.00,0.1314
3430.00,0.1316
3429.00,0.1318
3428.00,0.1320
3427.00,0.1321
3426.00,0.1322
3425.00,0.1324
3424.00,0.1325
3423.00,0.1327
3422.00,0.1328
3421.00,0.1330
3420.00,0.1331
3419.00,0.1333
3418.00,0.1335
3417.00,0.1337
3416.00,0.1339
3415.00,0.1341
3414.00,0.1342
3413.00,0.1344
3412.00,0.1345
3411.00,0.1345
3410.00,0.1346
3409.00,0.1346
3408.00,0.1346
3407.00,0.1346
3406.00,0.1347
3405.00,0.1348
3404.00,0.1350
3403.00,0.1351
3402.00,0.1352
3401.00,0.1352
3400.00,0.1351
3399.00,0.1351
3398.00,0.1350
3397.00,0.1350
3396.00,0.1350
3395.00,0.1350
3394.00,0.1350
3393.00,0.1349
3392.00,0.1349
3391.00,0.1347
3390.00,0.1346
3389.00,0.1345
3388.00,0.1343
3387.00,0.1342
3386.00,0.1341
3385.00,0.1340
3384.00,0.1339
3383.00,0.1339
3382.00,0.1338
3381.00,0.1338
3380.00,0.1336
3379.00,0.1334
3378.00,0.1332
3377.00,0.1330
3376.00,0.1327
3375.00,0.1326
3374.00,0.1324
3373.00,0.1323
3372.00,0.1322
3371.00,0.1321
3370.00,0.1320
3369.00,0.1318
3368.00,0.1315
3367.00,0.1312
3366.00,0.1309
3365.00,0.1306
3364.00,0.1303
3363.00,0.1300
3362.00,0.1298
3361.00,0.1295
3360.00,0.1292
3359.00,0.1289
3358.00,0.1285
3357.00,0.1282
3356.00,0.1279
3355.00,0.1277
3354.00,0.1275
3353.00,0.1272
3352.00,0.1270
3351.00,0.1267
3350.00,0.1263
3349.00,0.1260
3348.00,0.1256
3347.00,0.1253
3346.00,0.1250
3345.00,0.1247
3344.00,0.1244
3343.00,0.1241
3342.00,0.1238
3341.00,0.1235
3340.00,0.1232
3339.00,0.1228
3338.00,0.1225
3337.00,0.1221
3336.00,0.1218
3335.00,0.1214
3334.00,0.1210
3333.00,0.1207
3332.00,0.1203
3331.00,0.1199
3330.00,0.1196
3329.00,0.1193
3328.00,0.1190
3327.00,0.1187
3326.00,0.1183
3325.00,0.1179
3324.00,0.1176
3323.00,0.1172
3322.00,0.1168
3321.00,0.1165
3320.00,0.1161
3319.00,0.1158
3318.00,0.1155
3317.00,0.1151
3316.00,0.1148
3315.00,0.1145
3314.00,0.1142
3313.00,0.1139
3312.00,0.1136
3311.00,0.1133
3310.00,0.1130
3309.00,0.1127
3308.00,0.1125
3307.00,0.1122
3306.00,0.1119
3305.00,0.1115
3304.00,0.1112
3303.00,0.1108
3302.00,0.1104
3301.00,0.1101
3300.00,0.1097
3299.00,0.1094
3298.00,0.1091
3297.00,0.1089
3296.00,0.1086
3295.00,0.1084
3294.00,0.1081
3293.00,0.1079
3292.00,0.1076
3291.00,0.1073
3290.00,0.1070
3289.00,0.1067
3288.00,0.1064
3287.00,0.1061
3286.00,0.1058
3285.00,0.1055
3284.00,0.1052
3283.00,0.1049
3282.00,0.1046
3281.00,0.1043
3280.00,0.1039
3279.00,0.1036
3278.00,0.1033
3277.00,0.1030
3276.00,0.1027
3275.00,0.1025
3274.00,0.1022
3273.00,0.1020
3272.00,0.1017
3271.00,0.1014
3270.00,0.1011
3269.00,0.1007
3268.00,0.1004
3267.00,0.1001
3266.00,0.0998
3265.00,0.0995
3264.00,0.0992
3263.00,0.0989
3262.00,0.0986
3261.00,0.0983
3260.00,0.0980
3259.00,0.0977
3258.00,0.0973
3257.00,0.0970
3256.00,0.0967
3255.00,0.0963
3254.00,0.0960
3253.00,0.0956
3252.00,0.0953
3251.00,0.0949
3250.00,0.0946
3249.00,0.0942
3248.00,0.0938
3247.00,0.0935
3246.00,0.0931
3245.00,0.0927
3244.00,0.0923
3243.00,0.0919
3242.00,0.0916
3241.00,0.0912
3240.00,0.0908
3239.00,0.0905
3238.00,0.0901
3237.00,0.0898
3236.00,0.0894
3235.00,0.0891
3234.00,0.0886
3233.00,0.0882
3232.00,0.0877
3231.00,0.0872
3230.00,0.0867
3229.00,0.0863
3228.00,0.0859
3227.00,0.0855
3226.00,0.0851
3225.00,0.0847
3224.00,0.0842
3223.00,0.0837
3222.00,0.0833
3221.00,0.0828
3220.00,0.0824
3219.00,0.0820
3218.00,0.0815
3217.00,0.0811
3216.00,0.0806
3215.00,0.0802
3214.00,0.0797
3213.00,0.0793
3212.00,0.0788
3211.00,0.0784
3210.00,0.0779
3209.00,0.0775
3208.00,0.0770
3207.00,0.0765
3206.00,0.0761
3205.00,0.0756
3204.00,0.0751
3203.00,0.0746
3202.00,0.0741
3201.00,0.0736
3200.00,0.0731
3199.00,0.0727
3198.00,0.0722
3197.00,0.0718
3196.00,0.0714
3195.00,0.0709
3194.00,0.0705
3193.00,0.0700
3192.00,0.0696
3191.00,0.0691
3190.00,0.0686
3189.00,0.0682
3188.00,0.0677
3187.00,0.0672
3186.00,0.0668
3185.00,0.0663
3184.00,0.0659
3183.00,0.0654
3182.00,0.0650
3181.00,0.0645
3180.00,0.0640
3179.00,0.0635
3178.00,0.0630
3177.00,0.0626
3176.00,0.0622
3175.00,0.0618
3174.00,0.0614
3173.00,0.0609
3172.00,0.0604
3171.00,0.0600
3170.00,0.0595
3169.00,0.0591
3168.00,0.0587
3167.00,0.0583
3166.00,0.0579
3165.00,0.0574
3164.00,0.0570
3163.00,0.0566
3162.00,0.0562
3161.00,0.0558
3160.00,0.0555
3159.00,0.0551
3158.00,0.0547
3157.00,0.0543
3156.00,0.0539
3155.00,0.0535
3154.00,0.0531
3153.00,0.0527
3152.00,0.0523
3151.00,0.0519
3150.00,0.0515
3149.00,0.0511
3148.00,0.0508
3147.00,0.0504
3146.00,0.0501
3145.00,0.0497
3144.00,0.0494
3143.00,0.0491
3142.00,0.0487
3141.00,0.0483
3140.00,0.0480
3139.00,0.0476
3138.00,0.0472
3137.00,0.0468
3136.00,0.0464
3135.00,0.0461
3134.00,0.0458
3133.00,0.0455
3132.00,0.0452
3131.00,0.0449
3130.00,0.0446
3129.00,0.0442
3128.00,0.0438
3127.00,0.0435
3126.00,0.0432
3125.00,0.0429
3124.00,0.0426
3123.00,0.0424
3122.00,0.0421
3121.00,0.0419
3120.00,0.0416
3119.00,0.0413
3118.00,0.0410
3117.00,0.0407
3116.00,0.0404
3115.00,0.0401
3114.00,0.0398
3113.00,0.0395
3112.00,0.0393
3111.00,0.0391
3110.00,0.0389
3109.00,0.0386
3108.00,0.0383
3107.00,0.0380
3106.00,0.0377
3105.00,0.0374
3104.00,0.0372
3103.00,0.0370
3102.00,0.0367
3101.00,0.0365
3100.00,0.0363
3099.00,0.0360
3098.00,0.0358
3097.00,0.0355
3096.00,0.0352
3095.00,0.0350
3094.00,0.0348
3093.00,0.0346
3092.00,0.0344
3091.00,0.0342
3090.00,0.0340
3089.00,0.0338
3088.00,0.0335
3087.00,0.0333
3086.00,0.0331
3085.00,0.0329
3084.00,0.0327
3083.00,0.0324
3082.00,0.0322
3081.00,0.0320
3080.00,0.0318
3079.00,0.0316
3078.00,0.0314
3077.00,0.0312
3076.00,0.0309
3075.00,0.0307
3074.00,0.0305
3073.00,0.0303
3072.00,0.0301
3071.00,0.0300
3070.00,0.0299
3069.00,0.0297
3068.00,0.0296
3067.00,0.0295
3066.00,0.0293
3065.00,0.0291
3064.00,0.0289
3063.00,0.0288
3062.00,0.0286
3061.00,0.0284
3060.00,0.0282
3059.00,0.0280
3058.00,0.0278
3057.00,0.0276
3056.00,0.0274
3055.00,0.0272
3054.00,0.0271
3053.00,0.0269
3052.00,0.0268
3051.00,0.0267
3050.00,0.0265
3049.00,0.0264
3048.00,0.0263
3047.00,0.0261
3046.00,0.0260
3045.00,0.0258
3044.00,0.0257
3043.00,0.0256
3042.00,0.0255
3041.00,0.0253
3040.00,0.0252
3039.00,0.0250
3038.00,0.0248
3037.00,0.0247
3036.00,0.0246
3035.00,0.0245
3034.00,0.0243
3033.00,0.0242
3032.00,0.0241
3031.00,0.0239
3030.00,0.0238
3029.00,0.0237
3028.00,0.0236
3027.00,0.0236
3026.00,0.0235
3025.00,0.0234
3024.00,0.0233
3023.00,0.0231
3022.00,0.0230
3021.00,0.0229
3020.00,0.0228
3019.00,0.0228
3018.00,0.0227
3017.00,0.0227
3016.00,0.0226
3015.00,0.0224
3014.00,0.0223
3013.00,0.0222
3012.00,0.0221
3011.00,0.0221
3010.00,0.0220
3009.00,0.0219
3008.00,0.0219
3007.00,0.0218
3006.00,0.0218
3005.00,0.0217
3004.00,0.0217
3003.00,0.0216
3002.00,0.0216
3001.00,0.0215
3000.00,0.0215
2999.00,0.0214
2998.00,0.0214
2997.00,0.0214
2996.00,0.0213
2995.00,0.0214
2994.00,0.0214
2993.00,0.0214
2992.00,0.0214
2991.00,0.0214
2990.00,0.0214
2989.00,0.0214
2988.00,0.0214
2987.00,0.0214
2986.00,0.0214
2985.00,0.0214
2984.00,0.0215
2983.00,0.0216
2982.00,0.0216
2981.00,0.0217
2980.00,0.0217
2979.00,0.0217
2978.00,0.0218
2977.00,0.0218
2976.00,0.0219
2975.00,0.0219
2974.00,0.0220
2973.00,0.0221
2972.00,0.0221
2971.00,0.0221
2970.00,0.0221
2969.00,0.0222
2968.00,0.0222
2967.00,0.0222
2966.00,0.0222
2965.00,0.0222
2964.00,0.0222
2963.00,0.0222
2962.00,0.0223
2961.00,0.0223
2960.00,0.0223
2959.00,0.0223
2958.00,0.0223
2957.00,0.0222
2956.00,0.0222
2955.00,0.0222
2954.00,0.0221
2953.00,0.0221
2952.00,0.0221
2951.00,0.0220
2950.00,0.0220
2949.00,0.0220
2948.00,0.0221
2947.00,0.0220
2946.00,0.0220
2945.00,0.0220
2944.00,0.0220
2943.00,0.0220
2942.00,0.0220
2941.00,0.0220
2940.00,0.0220
2939.00,0.0220
2938.00,0.0221
2937.00,0.0221
2936.00,0.0221
2935.00,0.0221
2934.00,0.0222
2933.00,0.0222
2932.00,0.0223
2931.00,0.0224
2930.00,0.0224
2929.00,0.0225
2928.00,0.0225
2927.00,0.0226
2926.00,0.0226
2925.00,0.0227
2924.00,0.0227
2923.00,0.0228
2922.00,0.0228
2921.00,0.0228
2920.00,0.0227
2919.00,0.0227
2918.00,0.0226
2917.00,0.0225
2916.00,0.0223
2915.00,0.0222
2914.00,0.0220
2913.00,0.0218
2912.00,0.0217
2911.00,0.0215
2910.00,0.0214
2909.00,0.0212
2908.00,0.0210
2907.00,0.0209
2906.00,0.0208
2905.00,0.0207
2904.00,0.0205
2903.00,0.0204
2902.00,0.0202
2901.00,0.0201
2900.00,0.0199
2899.00,0.0198
2898.00,0.0197
2897.00,0.0196
2896.00,0.0195
2895.00,0.0193
2894.00,0.0192
2893.00,0.0191
2892.00,0.0189
2891.00,0.0189
2890.00,0.0188
2889.00,0.0187
2888.00,0.0187
2887.00,0.0185
2886.00,0.0184
2885.00,0.0183
2884.00,0.0182
2883.00,0.0181
2882.00,0.0180
2881.00,0.0179
2880.00,0.0178
2879.00,0.0178
2878.00,0.0177
2877.00,0.0177
2876.00,0.0176
2875.00,0.0175
2874.00,0.0174
2873.00,0.0173
2872.00,0.0172
2871.00,0.0171
2870.00,0.0170
2869.00,0.0169
2868.00,0.0168
2867.00,0.0167
2866.00,0.0166
2865.00,0.0165
2864.00,0.0163
2863.00,0.0162
2862.00,0.0161
2861.00,0.0161
2860.00,0.0161
2859.00,0.0161
2858.00,0.0161
2857.00,0.0162
2856.00,0.0162
2855.00,0.0162
2854.00,0.0162
2853.00,0.0162
2852.00,0.0161
2851.00,0.0161
2850.00,0.0159
2849.00,0.0158
2848.00,0.0156
2847.00,0.0153
2846.00,0.0151
2845.00,0.0149
2844.00,0.0147
2843.00,0.0145
2842.00,0.0144
2841.00,0.0142
2840.00,0.0141
2839.00,0.0140
2838.00,0.0139
2837.00,0.0138
2836.00,0.0137
2835.00,0.0137
2834.00,0.0136
2833.00,0.0135
2832.00,0.0134
2831.00,0.0134
2830.00,0.0133
2829.00,0.0132
2828.00,0.0131
2827.00,0.0131
2826.00,0.0130
2825.00,0.0130
2824.00,0.0129
2823.00,0.0129
2822.00,0.0128
2821.00,0.0128
2820.00,0.0127
2819.00,0.0127
2818.00,0.0126
2817.00,0.0125
2816.00,0.0125
2815.00,0.0124
2814.00,0.0124
2813.00,0.0124
2812.00,0.0123
2811.00,0.0123
2810.00,0.0123
2809.00,0.0122
2808.00,0.0122
2807.00,0.0121
2806.00,0.0121
2805.00,0.0121
2804.00,0.0120
2803.00,0.0120
2802.00,0.0119
2801.00,0.0119
2800.00,0.0119
2799.00,0.0119
2798.00,0.0119
2797.00,0.0119
2796.00,0.0118
2795.00,0.0118
2794.00,0.0117
2793.00,0.0117
2792.00,0.0117
2791.00,0.0117
2790.00,0.0117
2789.00,0.0116
2788.00,0.0115
2787.00,0.0114
2786.00,0.0114
2785.00,0.0113
2784.00,0.0113
2783.00,0.0113
2782.00,0.0113
2781.00,0.0113
2780.00,0.0113
2779.00,0.0112
2778.00,0.0112
2777.00,0.0112
2776.00,0.0112
2775.00,0.0112
2774.00,0.0112
2773.00,0.0112
2772.00,0.0112
2771.00,0.0111
2770.00,0.0111
2769.00,0.0110
2768.00,0.0110
2767.00,0.0109
2766.00,0.0109
2765.00,0.0108
2764.00,0.0108
2763.00,0.0108
2762.00,0.0108
2761.00,0.0108
2760.00,0.0107
2759.00,0.0107
2758.00,0.0107
2757.00,0.0106
2756.00,0.0106
2755.00,0.0106
2754.00,0.0106
2753.00,0.0106
2752.00,0.0106
2751.00,0.0106
2750.00,0.0105
2749.00,0.0105
2748.00,0.0104
2747.00,0.0104
2746.00,0.0104
2745.00,0.0104
2744.00,0.0104
2743.00,0.0104
2742.00,0.0104
2741.00,0.0104
2740.00,0.0104
2739.00,0.0104
2738.00,0.0103
2737.00,0.0103
2736.00,0.0103
2735.00,0.0102
2734.00,0.0102
2733.00,0.0102
2732.00,0.0102
2731.00,0.0102
2730.00,0.0102
2729.00,0.0102
2728.00,0.0102
2727.00,0.0102
2726.00,0.0102
2725.00,0.0102
2724.00,0.0101
2723.00,0.0101
2722.00,0.0101
2721.00,0.0101
2720.00,0.0101
2719.00,0.0101
2718.00,0.0100
2717.00,0.0100
2716.00,0.0100
2715.00,0.0100
2714.00,0.0100
2713.00,0.0099
2712.00,0.0099
2711.00,0.0099
2710.00,0.0099
2709.00,0.0099
2708.00,0.0098
2707.00,0.0098
2706.00,0.0098
2705.00,0.0098
2704.00,0.0098
2703.00,0.0097
2702.00,0.0098
2701.00,0.0098
2700.00,0.0098
2699.00,0.0098
2698.00,0.0098
2697.00,0.0097
2696.00,0.0097
2695.00,0.0097
2694.00,0.0096
2693.00,0.0096
2692.00,0.0096
2691.00,0.0096
2690.00,0.0096
2689.00,0.0096
2688.00,0.0096
2687.00,0.0096
2686.00,0.0095
2685.00,0.0095
2684.00,0.0095
2683.00,0.0095
2682.00,0.0095
2681.00,0.0095
2680.00,0.0095
2679.00,0.0095
2678.00,0.0094
2677.00,0.0094
2676.00,0.0094
2675.00,0.0094
2674.00,0.0093
2673.00,0.0093
2672.00,0.0093
2671.00,0.0093
2670.00,0.0093
2669.00,0.0093
2668.00,0.0093
2667.00,0.0093
2666.00,0.0093
2665.00,0.0093
2664.00,0.0094
2663.00,0.0094
2662.00,0.0095
2661.00,0.0096
2660.00,0.0096
2659.00,0.0096
2658.00,0.0097
2657.00,0.0097
2656.00,0.0097
2655.00,0.0097
2654.00,0.0096
2653.00,0.0096
2652.00,0.0096
2651.00,0.0095
2650.00,0.0095
2649.00,0.0095
2648.00,0.0095
2647.00,0.0095
2646.00,0.0095
2645.00,0.0095
2644.00,0.0094
2643.00,0.0094
2642.00,0.0093
2641.00,0.0093
2640.00,0.0093
2639.00,0.0093
2638.00,0.0093
2637.00,0.0093
2636.00,0.0093
2635.00,0.0093
2634.00,0.0092
2633.00,0.0091
2632.00,0.0091
2631.00,0.0091
2630.00,0.0090
2629.00,0.0090
2628.00,0.0090
2627.00,0.0089
2626.00,0.0089
2625.00,0.0088
2624.00,0.0088
2623.00,0.0088
2622.00,0.0088
2621.00,0.0088
2620.00,0.0087
2619.00,0.0087
2618.00,0.0087
2617.00,0.0086
2616.00,0.0086
2615.00,0.0086
2614.00,0.0085
2613.00,0.0085
2612.00,0.0085
2611.00,0.0085
2610.00,0.0085
2609.00,0.0085
2608.00,0.0085
2607.00,0.0085
2606.00,0.0084
2605.00,0.0083
2604.00,0.0083
2603.00,0.0083
2602.00,0.0083
2601.00,0.0083
2600.00,0.0082
2599.00,0.0082
2598.00,0.0081
2597.00,0.0080
2596.00,0.0080
2595.00,0.0080
2594.00,0.0080
2593.00,0.0079
2592.00,0.0080
2591.00,0.0080
2590.00,0.0080
2589.00,0.0080
2588.00,0.0079
2587.00,0.0079
2586.00,0.0079
2585.00,0.0079
2584.00,0.0079
2583.00,0.0079
2582.00,0.0079
2581.00,0.0079
2580.00,0.0078
2579.00,0.0078
2578.00,0.0078
2577.00,0.0077
2576.00,0.0077
2575.00,0.0076
2574.00,0.0076
2573.00,0.0075
2572.00,0.0075
2571.00,0.0075
2570.00,0.0075
2569.00,0.0076
2568.00,0.0076
2567.00,0.0076
2566.00,0.0076
2565.00,0.0075
2564.00,0.0075
2563.00,0.0075
2562.00,0.0075
2561.00,0.0074
2560.00,0.0074
2559.00,0.0074
2558.00,0.0074
2557.00,0.0074
2556.00,0.0074
2555.00,0.0073
2554.00,0.0073
2553.00,0.0073
2552.00,0.0073
2551.00,0.0073
2550.00,0.0074
2549.00,0.0074
2548.00,0.0073
2547.00,0.0073
2546.00,0.0073
2545.00,0.0073
2544.00,0.0073
2543.00,0.0073
2542.00,0.0072
2541.00,0.0071
2540.00,0.0072
2539.00,0.0072
2538.00,0.0073
2537.00,0.0073
2536.00,0.0073
2535.00,0.0073
2534.00,0.0072
2533.00,0.0072
2532.00,0.0072
2531.00,0.0071
2530.00,0.0071
2529.00,0.0071
2528.00,0.0070
2527.00,0.0070
2526.00,0.0070
2525.00,0.0070
2524.00,0.0070
2523.00,0.0071
2522.00,0.0071
2521.00,0.0072
2520.00,0.0072
2519.00,0.0072
2518.00,0.0073
2517.00,0.0072
2516.00,0.0072
2515.00,0.0071
2514.00,0.0071
2513.00,0.0071
2512.00,0.0070
2511.00,0.0070
2510.00,0.0071
2509.00,0.0071
2508.00,0.0071
2507.00,0.0071
2506.00,0.0071
2505.00,0.0071
2504.00,0.0071
2503.00,0.0071
2502.00,0.0071
2501.00,0.0072
2500.00,0.0071
2499.00,0.0071
2498.00,0.0070
2497.00,0.0070
2496.00,0.0070
2495.00,0.0071
2494.00,0.0071
2493.00,0.0071
2492.00,0.0071
2491.00,0.0070
2490.00,0.0070
2489.00,0.0069
2488.00,0.0069
2487.00,0.0068
2486.00,0.0068
2485.00,0.0067
2484.00,0.0067
2483.00,0.0067
2482.00,0.0067
2481.00,0.0067
2480.00,0.0067
2479.00,0.0067
2478.00,0.0067
2477.00,0.0068
2476.00,0.0068
2475.00,0.0068
2474.00,0.0068
2473.00,0.0068
2472.00,0.0068
2471.00,0.0069
2470.00,0.0068
2469.00,0.0067
2468.00,0.0067
2467.00,0.0067
2466.00,0.0067
2465.00,0.0067
2464.00,0.0067
2463.00,0.0067
2462.00,0.0067
2461.00,0.0068
2460.00,0.0068
2459.00,0.0069
2458.00,0.0069
2457.00,0.0070
2456.00,0.0070
2455.00,0.0070
2454.00,0.0069
2453.00,0.0069
2452.00,0.0069
2451.00,0.0068
2450.00,0.0069
2449.00,0.0069
2448.00,0.0069
2447.00,0.0069
2446.00,0.0069
2445.00,0.0068
2444.00,0.0068
2443.00,0.0067
2442.00,0.0066
2441.00,0.0066
2440.00,0.0066
2439.00,0.0066
2438.00,0.0066
2437.00,0.0066
2436.00,0.0066
2435.00,0.0067
2434.00,0.0067
2433.00,0.0067
2432.00,0.0067
2431.00,0.0067
2430.00,0.0066
2429.00,0.0066
2428.00,0.0066
2427.00,0.0066
2426.00,0.0066
2425.00,0.0067
2424.00,0.0067
2423.00,0.0067
2422.00,0.0067
2421.00,0.0067
2420.00,0.0067
2419.00,0.0067
2418.00,0.0066
2417.00,0.0066
2416.00,0.0065
2415.00,0.0065
2414.00,0.0065
2413.00,0.0065
2412.00,0.0066
2411.00,0.0066
2410.00,0.0067
2409.00,0.0067
2408.00,0.0067
2407.00,0.0067
2406.00,0.0066
2405.00,0.0066
2404.00,0.0065
2403.00,0.0065
2402.00,0.0064
2401.00,0.0064
2400.00,0.0064
2399.00,0.0064
2398.00,0.0065
2397.00,0.0065
2396.00,0.0066
2395.00,0.0066
2394.00,0.0066
2393.00,0.0066
2392.00,0.0066
2391.00,0.0066
2390.00,0.0066
2389.00,0.0066
2388.00,0.0066
2387.00,0.0066
2386.00,0.0065
2385.00,0.0065
2384.00,0.0065
2383.00,0.0066
2382.00,0.0066
2381.00,0.0065
2380.00,0.0065
2379.00,0.0065
2378.00,0.0065
2377.00,0.0066
2376.00,0.0066
2375.00,0.0067
2374.00,0.0067
2373.00,0.0067
2372.00,0.0067
2371.00,0.0068
2370.00,0.0068
2369.00,0.0068
2368.00,0.0068
2367.00,0.0068
2366.00,0.0067
2365.00,0.0068
2364.00,0.0069
2363.00,0.0070
2362.00,0.0071
2361.00,0.0073
2360.00,0.0073
2359.00,0.0073
2358.00,0.0072
2357.00,0.0072
2356.00,0.0072
2355.00,0.0073
2354.00,0.0074
2353.00,0.0074
2352.00,0.0073
2351.00,0.0073
2350.00,0.0073
2349.00,0.0075
2348.00,0.0078
2347.00,0.0080
2346.00,0.0080
2345.00,0.0079
2344.00,0.0078
2343.00,0.0078
2342.00,0.0080
2341.00,0.0081
2340.00,0.0082
2339.00,0.0082
2338.00,0.0083
2337.00,0.0082
2336.00,0.0082
2335.00,0.0081
2334.00,0.0081
2333.00,0.0081
2332.00,0.0080
2331.00,0.0080
2330.00,0.0080
2329.00,0.0082
2328.00,0.0085
2327.00,0.0089
2326.00,0.0094
2325.00,0.0099
2324.00,0.0101
2323.00,0.0101
2322.00,0.0099
2321.00,0.0097
2320.00,0.0095
2319.00,0.0094
2318.00,0.0093
2317.00,0.0093
2316.00,0.0092
2315.00,0.0092
2314.00,0.0091
2313.00,0.0091
2312.00,0.0091
2311.00,0.0092
2310.00,0.0092
2309.00,0.0091
2308.00,0.0091
2307.00,0.0090
2306.00,0.0089
2305.00,0.0089
2304.00,0.0089
2303.00,0.0089
2302.00,0.0089
2301.00,0.0090
2300.00,0.0090
2299.00,0.0091
2298.00,0.0091
2297.00,0.0091
2296.00,0.0091
2295.00,0.0091
2294.00,0.0092
2293.00,0.0093
2292.00,0.0095
2291.00,0.0097
2290.00,0.0098
2289.00,0.0099
2288.00,0.0099
2287.00,0.0099
2286.00,0.0099
2285.00,0.0099
2284.00,0.0099
2283.00,0.0098
2282.00,0.0097
2281.00,0.0096
2280.00,0.0096
2279.00,0.0095
2278.00,0.0095
2277.00,0.0094
2276.00,0.0094
2275.00,0.0093
2274.00,0.0092
2273.00,0.0091
2272.00,0.0090
2271.00,0.0090
2270.00,0.0090
2269.00,0.0090
2268.00,0.0089
2267.00,0.0087
2266.00,0.0086
2265.00,0.0086
2264.00,0.0087
2263.00,0.0088
2262.00,0.0089
2261.00,0.0089
2260.00,0.0089
2259.00,0.0088
2258.00,0.0087
2257.00,0.0086
2256.00,0.0085
2255.00,0.0084
2254.00,0.0084
2253.00,0.0083
2252.00,0.0083
2251.00,0.0082
2250.00,0.0082
2249.00,0.0082
2248.00,0.0083
2247.00,0.0084
2246.00,0.0085
2245.00,0.0086
2244.00,0.0087
2243.00,0.0088
2242.00,0.0087
2241.00,0.0087
2240.00,0.0086
2239.00,0.0086
2238.00,0.0086
2237.00,0.0086
2236.00,0.0086
2235.00,0.0087
2234.00,0.0087
2233.00,0.0087
2232.00,0.0086
2231.00,0.0085
2230.00,0.0084
2229.00,0.0084
2228.00,0.0084
2227.00,0.0083
2226.00,0.0083
2225.00,0.0084
2224.00,0.0084
2223.00,0.0085
2222.00,0.0085
2221.00,0.0085
2220.00,0.0085
2219.00,0.0083
2218.00,0.0081
2217.00,0.0080
2216.00,0.0080
2215.00,0.0079
2214.00,0.0079
2213.00,0.0080
2212.00,0.0081
2211.00,0.0082
2210.00,0.0082
2209.00,0.0081
2208.00,0.0081
2207.00,0.0082
2206.00,0.0082
2205.00,0.0083
2204.00,0.0084
2203.00,0.0083
2202.00,0.0082
2201.00,0.0082
2200.00,0.0083
2199.00,0.0084
2198.00,0.0085
2197.00,0.0085
2196.00,0.0084
2195.00,0.0083
2194.00,0.0082
2193.00,0.0081
2192.00,0.0083
2191.00,0.0086
2190.00,0.0089
2189.00,0.0089
2188.00,0.0088
2187.00,0.0085
2186.00,0.0083
2185.00,0.0081
2184.00,0.0080
2183.00,0.0080
2182.00,0.0079
2181.00,0.0079
2180.00,0.0079
2179.00,0.0081
2178.00,0.0081
2177.00,0.0081
2176.00,0.0079
2175.00,0.0076
2174.00,0.0076
2173.00,0.0077
2172.00,0.0080
2171.00,0.0082
2170.00,0.0084
2169.00,0.0086
2168.00,0.0088
2167.00,0.0090
2166.00,0.0093
2165.00,0.0095
2164.00,0.0096
2163.00,0.0097
2162.00,0.0097
2161.00,0.0091
2160.00,0.0079
2159.00,0.0061
2158.00,0.0044
2157.00,0.0035
2156.00,0.0034
2155.00,0.0037
2154.00,0.0041
2153.00,0.0045
2152.00,0.0048
2151.00,0.0051
2150.00,0.0054
2149.00,0.0056
2148.00,0.0057
2147.00,0.0057
2146.00,0.0057
2145.00,0.0058
2144.00,0.0058
2143.00,0.0059
2142.00,0.0060
2141.00,0.0061
2140.00,0.0062
2139.00,0.0061
2138.00,0.0061
2137.00,0.0060
2136.00,0.0060
2135.00,0.0059
2134.00,0.0058
2133.00,0.0059
2132.00,0.0062
2131.00,0.0066
2130.00,0.0069
2129.00,0.0072
2128.00,0.0075
2127.00,0.0077
2126.00,0.0079
2125.00,0.0081
2124.00,0.0082
2123.00,0.0083
2122.00,0.0084
2121.00,0.0086
2120.00,0.0088
2119.00,0.0089
2118.00,0.0091
2117.00,0.0093
2116.00,0.0095
2115.00,0.0097
2114.00,0.0099
2113.00,0.0100
2112.00,0.0101
2111.00,0.0101
2110.00,0.0099
2109.00,0.0098
2108.00,0.0097
2107.00,0.0097
2106.00,0.0098
2105.00,0.0098
2104.00,0.0097
2103.00,0.0096
2102.00,0.0096
2101.00,0.0096
2100.00,0.0097
2099.00,0.0098
2098.00,0.0097
2097.00,0.0096
2096.00,0.0094
2095.00,0.0092
2094.00,0.0090
2093.00,0.0090
2092.00,0.0091
2091.00,0.0093
2090.00,0.0093
2089.00,0.0094
2088.00,0.0094
2087.00,0.0095
2086.00,0.0095
2085.00,0.0095
2084.00,0.0095
2083.00,0.0095
2082.00,0.0096
2081.00,0.0097
2080.00,0.0098
2079.00,0.0099
2078.00,0.0100
2077.00,0.0099
2076.00,0.0098
2075.00,0.0097
2074.00,0.0095
2073.00,0.0094
2072.00,0.0092
2071.00,0.0090
2070.00,0.0089
2069.00,0.0089
2068.00,0.0089
2067.00,0.0089
2066.00,0.0088
2065.00,0.0088
2064.00,0.0088
2063.00,0.0088
2062.00,0.0087
2061.00,0.0087
2060.00,0.0087
2059.00,0.0087
2058.00,0.0086
2057.00,0.0087
2056.00,0.0087
2055.00,0.0087
2054.00,0.0088
2053.00,0.0092
2052.00,0.0096
2051.00,0.0100
2050.00,0.0100
2049.00,0.0097
2048.00,0.0094
2047.00,0.0092
2046.00,0.0090
2045.00,0.0087
2044.00,0.0084
2043.00,0.0080
2042.00,0.0078
2041.00,0.0078
2040.00,0.0079
2039.00,0.0081
2038.00,0.0082
2037.00,0.0082
2036.00,0.0082
2035.00,0.0080
2034.00,0.0077
2033.00,0.0073
2032.00,0.0069
2031.00,0.0066
2030.00,0.0064
2029.00,0.0063
2028.00,0.0062
2027.00,0.0062
2026.00,0.0063
2025.00,0.0064
2024.00,0.0065
2023.00,0.0067
2022.00,0.0069
2021.00,0.0069
2020.00,0.0068
2019.00,0.0064
2018.00,0.0060
2017.00,0.0058
2016.00,0.0057
2015.00,0.0056
2014.00,0.0056
2013.00,0.0058
2012.00,0.0061
2011.00,0.0064
2010.00,0.0064
2009.00,0.0061
2008.00,0.0056
2007.00,0.0051
2006.00,0.0049
2005.00,0.0052
2004.00,0.0056
2003.00,0.0060
2002.00,0.0060
2001.00,0.0061
2000.00,0.0064
1999.00,0.0067
1998.00,0.0070
1997.00,0.0072
1996.00,0.0072
1995.00,0.0072
1994.00,0.0071
1993.00,0.0071
1992.00,0.0072
1991.00,0.0073
1990.00,0.0073
1989.00,0.0072
1988.00,0.0071
1987.00,0.0071
1986.00,0.0072
1985.00,0.0073
1984.00,0.0075
1983.00,0.0077
1982.00,0.0081
1981.00,0.0086
1980.00,0.0089
1979.00,0.0087
1978.00,0.0079
1977.00,0.0069
1976.00,0.0062
1975.00,0.0057
1974.00,0.0055
1973.00,0.0053
1972.00,0.0053
1971.00,0.0053
1970.00,0.0052
1969.00,0.0052
1968.00,0.0052
1967.00,0.0053
1966.00,0.0054
1965.00,0.0055
1964.00,0.0055
1963.00,0.0054
1962.00,0.0052
1961.00,0.0050
1960.00,0.0049
1959.00,0.0048
1958.00,0.0048
1957.00,0.0049
1956.00,0.0051
1955.00,0.0053
1954.00,0.0054
1953.00,0.0055
1952.00,0.0056
1951.00,0.0057
1950.00,0.0058
1949.00,0.0060
1948.00,0.0060
1947.00,0.0060
1946.00,0.0059
1945.00,0.0059
1944.00,0.0058
1943.00,0.0057
1942.00,0.0057
1941.00,0.0058
1940.00,0.0059
1939.00,0.0060
1938.00,0.0060
1937.00,0.0060
1936.00,0.0061
1935.00,0.0061
1934.00,0.0062
1933.00,0.0062
1932.00,0.0062
1931.00,0.0062
1930.00,0.0062
1929.00,0.0063
1928.00,0.0064
1927.00,0.0065
1926.00,0.0066
1925.00,0.0066
1924.00,0.0067
1923.00,0.0067
1922.00,0.0067
1921.00,0.0067
1920.00,0.0068
1919.00,0.0068
1918.00,0.0067
1917.00,0.0065
1916.00,0.0064
1915.00,0.0065
1914.00,0.0065
1913.00,0.0066
1912.00,0.0067
1911.00,0.0068
1910.00,0.0070
1909.00,0.0071
1908.00,0.0071
1907.00,0.0070
1906.00,0.0069
1905.00,0.0067
1904.00,0.0066
1903.00,0.0066
1902.00,0.0066
1901.00,0.0066
1900.00,0.0067
1899.00,0.0067
1898.00,0.0067
1897.00,0.0067
1896.00,0.0068
1895.00,0.0068
1894.00,0.0068
1893.00,0.0068
1892.00,0.0069
1891.00,0.0068
1890.00,0.0068
1889.00,0.0067
1888.00,0.0067
1887.00,0.0067
1886.00,0.0067
1885.00,0.0067
1884.00,0.0067
1883.00,0.0067
1882.00,0.0068
1881.00,0.0068
1880.00,0.0069
1879.00,0.0069
1878.00,0.0069
1877.00,0.0068
1876.00,0.0067
1875.00,0.0067
1874.00,0.0068
1873.00,0.0068
1872.00,0.0069
1871.00,0.0070
1870.00,0.0069
1869.00,0.0068
1868.00,0.0067
1867.00,0.0068
1866.00,0.0068
1865.00,0.0068
1864.00,0.0069
1863.00,0.0069
1862.00,0.0069
1861.00,0.0070
1860.00,0.0070
1859.00,0.0070
1858.00,0.0070
1857.00,0.0070
1856.00,0.0070
1855.00,0.0070
1854.00,0.0069
1853.00,0.0069
1852.00,0.0069
1851.00,0.0069
1850.00,0.0068
1849.00,0.0069
1848.00,0.0070
1847.00,0.0072
1846.00,0.0073
1845.00,0.0073
1844.00,0.0073
1843.00,0.0072
1842.00,0.0072
1841.00,0.0072
1840.00,0.0073
1839.00,0.0073
1838.00,0.0073
1837.00,0.0073
1836.00,0.0073
1835.00,0.0074
1834.00,0.0074
1833.00,0.0076
1832.00,0.0076
1831.00,0.0076
1830.00,0.0075
1829.00,0.0075
1828.00,0.0076
1827.00,0.0078
1826.00,0.0078
1825.00,0.0078
1824.00,0.0078
1823.00,0.0078
1822.00,0.0078
1821.00,0.0078
1820.00,0.0077
1819.00,0.0076
1818.00,0.0076
1817.00,0.0075
1816.00,0.0075
1815.00,0.0076
1814.00,0.0077
1813.00,0.0079
1812.00,0.0080
1811.00,0.0081
1810.00,0.0081
1809.00,0.0082
1808.00,0.0082
1807.00,0.0083
1806.00,0.0084
1805.00,0.0085
1804.00,0.0085
1803.00,0.0086
1802.00,0.0087
1801.00,0.0088
1800.00,0.0089
1799.00,0.0090
1798.00,0.0091
1797.00,0.0091
1796.00,0.0093
1795.00,0.0094
1794.00,0.0094
1793.00,0.0094
1792.00,0.0093
1791.00,0.0092
1790.00,0.0092
1789.00,0.0093
1788.00,0.0094
1787.00,0.0094
1786.00,0.0094
1785.00,0.0094
1784.00,0.0094
1783.00,0.0095
1782.00,0.0095
1781.00,0.0095
1780.00,0.0096
1779.00,0.0097
1778.00,0.0097
1777.00,0.0098
1776.00,0.0099
1775.00,0.0101
1774.00,0.0103
1773.00,0.0103
1772.00,0.0103
1771.00,0.0104
1770.00,0.0104
1769.00,0.0105
1768.00,0.0105
1767.00,0.0105
1766.00,0.0106
1765.00,0.0107
1764.00,0.0108
1763.00,0.0109
1762.00,0.0109
1761.00,0.0109
1760.00,0.0110
1759.00,0.0111
1758.00,0.0112
1757.00,0.0113
1756.00,0.0115
1755.00,0.0117
1754.00,0.0119
1753.00,0.0121
1752.00,0.0122
1751.00,0.0123
1750.00,0.0124
1749.00,0.0125
1748.00,0.0127
1747.00,0.0129
1746.00,0.0130
1745.00,0.0131
1744.00,0.0133
1743.00,0.0135
1742.00,0.0137
1741.00,0.0139
1740.00,0.0139
1739.00,0.0140
1738.00,0.0141
1737.00,0.0144
1736.00,0.0148
1735.00,0.0149
1734.00,0.0149
1733.00,0.0150
1732.00,0.0152
1731.00,0.0155
1730.00,0.0156
1729.00,0.0158
1728.00,0.0160
1727.00,0.0162
1726.00,0.0164
1725.00,0.0166
1724.00,0.0168
1723.00,0.0171
1722.00,0.0173
1721.00,0.0177
1720.00,0.0180
1719.00,0.0183
1718.00,0.0185
1717.00,0.0190
1716.00,0.0194
1715.00,0.0198
1714.00,0.0201
1713.00,0.0203
1712.00,0.0206
1711.00,0.0209
1710.00,0.0213
1709.00,0.0217
1708.00,0.0221
1707.00,0.0226
1706.00,0.0231
1705.00,0.0237
1704.00,0.0243
1703.00,0.0249
1702.00,0.0254
1701.00,0.0259
1700.00,0.0266
1699.00,0.0274
1698.00,0.0280
1697.00,0.0287
1696.00,0.0294
1695.00,0.0302
1694.00,0.0309
1693.00,0.0316
1692.00,0.0323
1691.00,0.0330
1690.00,0.0338
1689.00,0.0347
1688.00,0.0356
1687.00,0.0364
1686.00,0.0371
1685.00,0.0381
1684.00,0.0397
1683.00,0.0412
1682.00,0.0423
1681.00,0.0433
1680.00,0.0442
1679.00,0.0452
1678.00,0.0461
1677.00,0.0471
1676.00,0.0483
1675.00,0.0497
1674.00,0.0510
1673.00,0.0522
1672.00,0.0532
1671.00,0.0542
1670.00,0.0555
1669.00,0.0570
1668.00,0.0585
1667.00,0.0597
1666.00,0.0606
1665.00,0.0615
1664.00,0.0626
1663.00,0.0640
1662.00,0.0655
1661.00,0.0668
1660.00,0.0680
1659.00,0.0690
1658.00,0.0698
1657.00,0.0706
1656.00,0.0713
1655.00,0.0719
1654.00,0.0729
1653.00,0.0750
1652.00,0.0770
1651.00,0.0780
1650.00,0.0784
1649.00,0.0786
1648.00,0.0790
1647.00,0.0800
1646.00,0.0812
1645.00,0.0820
1644.00,0.0824
1643.00,0.0826
1642.00,0.0826
1641.00,0.0827
1640.00,0.0827
1639.00,0.0827
1638.00,0.0826
1637.00,0.0825
1636.00,0.0827
1635.00,0.0829
1634.00,0.0828
1633.00,0.0824
1632.00,0.0818
1631.00,0.0811
1630.00,0.0803
1629.00,0.0794
1628.00,0.0786
1627.00,0.0778
1626.00,0.0770
1625.00,0.0760
1624.00,0.0748
1623.00,0.0736
1622.00,0.0724
1621.00,0.0713
1620.00,0.0702
1619.00,0.0690
1618.00,0.0676
1617.00,0.0661
1616.00,0.0647
1615.00,0.0635
1614.00,0.0623
1613.00,0.0611
1612.00,0.0599
1611.00,0.0586
1610.00,0.0573
1609.00,0.0561
1608.00,0.0549
1607.00,0.0538
1606.00,0.0527
1605.00,0.0516
1604.00,0.0506
1603.00,0.0497
1602.00,0.0488
1601.00,0.0478
1600.00,0.0469
1599.00,0.0460
1598.00,0.0452
1597.00,0.0444
1596.00,0.0436
1595.00,0.0429
1594.00,0.0423
1593.00,0.0416
1592.00,0.0410
1591.00,0.0404
1590.00,0.0398
1589.00,0.0392
1588.00,0.0387
1587.00,0.0382
1586.00,0.0378
1585.00,0.0374
1584.00,0.0369
1583.00,0.0365
1582.00,0.0362
1581.00,0.0359
1580.00,0.0357
1579.00,0.0354
1578.00,0.0351
1577.00,0.0347
1576.00,0.0343
1575.00,0.0340
1574.00,0.0339
1573.00,0.0338
1572.00,0.0336
1571.00,0.0333
1570.00,0.0330
1569.00,0.0328
1568.00,0.0326
1567.00,0.0324
1566.00,0.0322
1565.00,0.0321
1564.00,0.0320
1563.00,0.0319
1562.00,0.0320
1561.00,0.0319
1560.00,0.0315
1559.00,0.0315
1558.00,0.0316
1557.00,0.0316
1556.00,0.0314
1555.00,0.0313
1554.00,0.0311
1553.00,0.0309
1552.00,0.0307
1551.00,0.0306
1550.00,0.0305
1549.00,0.0305
1548.00,0.0305
1547.00,0.0304
1546.00,0.0303
1545.00,0.0303
1544.00,0.0303
1543.00,0.0304
1542.00,0.0304
1541.00,0.0303
1540.00,0.0300
1539.00,0.0296
1538.00,0.0293
1537.00,0.0292
1536.00,0.0291
1535.00,0.0289
1534.00,0.0286
1533.00,0.0283
1532.00,0.0282
1531.00,0.0281
1530.00,0.0280
1529.00,0.0278
1528.00,0.0277
1527.00,0.0276
1526.00,0.0275
1525.00,0.0275
1524.00,0.0275
1523.00,0.0274
1522.00,0.0273
1521.00,0.0272
1520.00,0.0271
1519.00,0.0270
1518.00,0.0269
1517.00,0.0268
1516.00,0.0267
1515.00,0.0266
1514.00,0.0266
1513.00,0.0265
1512.00,0.0265
1511.00,0.0265
1510.00,0.0265
1509.00,0.0266
1508.00,0.0266
1507.00,0.0266
1506.00,0.0266
1505.00,0.0264
1504.00,0.0263
1503.00,0.0263
1502.00,0.0264
1501.00,0.0265
1500.00,0.0266
1499.00,0.0266
1498.00,0.0267
1497.00,0.0268
1496.00,0.0268
1495.00,0.0269
1494.00,0.0271
1493.00,0.0273
1492.00,0.0275
1491.00,0.0276
1490.00,0.0279
1489.00,0.0282
1488.00,0.0285
1487.00,0.0287
1486.00,0.0290
1485.00,0.0292
1484.00,0.0295
1483.00,0.0297
1482.00,0.0301
1481.00,0.0305
1480.00,0.0309
1479.00,0.0313
1478.00,0.0317
1477.00,0.0321
1476.00,0.0325
1475.00,0.0329
1474.00,0.0333
1473.00,0.0338
1472.00,0.0342
1471.00,0.0344
1470.00,0.0346
1469.00,0.0348
1468.00,0.0350
1467.00,0.0352
1466.00,0.0354
1465.00,0.0356
1464.00,0.0359
1463.00,0.0361
1462.00,0.0363
1461.00,0.0365
1460.00,0.0367
1459.00,0.0368
1458.00,0.0371
1457.00,0.0376
1456.00,0.0380
1455.00,0.0382
1454.00,0.0383
1453.00,0.0385
1452.00,0.0386
1451.00,0.0387
1450.00,0.0387
1449.00,0.0388
1448.00,0.0389
1447.00,0.0390
1446.00,0.0392
1445.00,0.0393
1444.00,0.0395
1443.00,0.0396
1442.00,0.0398
1441.00,0.0400
1440.00,0.0403
1439.00,0.0405
1438.00,0.0407
1437.00,0.0409
1436.00,0.0411
1435.00,0.0413
1434.00,0.0415
1433.00,0.0416
1432.00,0.0417
1431.00,0.0418
1430.00,0.0419
1429.00,0.0420
1428.00,0.0421
1427.00,0.0422
1426.00,0.0422
1425.00,0.0422
1424.00,0.0422
1423.00,0.0423
1422.00,0.0423
1421.00,0.0423
1420.00,0.0422
1419.00,0.0422
1418.00,0.0422
1417.00,0.0422
1416.00,0.0422
1415.00,0.0421
1414.00,0.0419
1413.00,0.0418
1412.00,0.0417
1411.00,0.0416
1410.00,0.0415
1409.00,0.0414
1408.00,0.0413
1407.00,0.0412
1406.00,0.0411
1405.00,0.0410
1404.00,0.0409
1403.00,0.0407
1402.00,0.0406
1401.00,0.0404
1400.00,0.0402
1399.00,0.0399
1398.00,0.0397
1397.00,0.0396
1396.00,0.0394
1395.00,0.0393
1394.00,0.0392
1393.00,0.0391
1392.00,0.0391
1391.00,0.0391
1390.00,0.0393
1389.00,0.0395
1388.00,0.0399
1387.00,0.0404
1386.00,0.0410
1385.00,0.0415
1384.00,0.0420
1383.00,0.0425
1382.00,0.0429
1381.00,0.0433
1380.00,0.0437
1379.00,0.0439
1378.00,0.0442
1377.00,0.0443
1376.00,0.0444
1375.00,0.0444
1374.00,0.0444
1373.00,0.0443
1372.00,0.0442
1371.00,0.0440
1370.00,0.0437
1369.00,0.0434
1368.00,0.0432
1367.00,0.0429
1366.00,0.0426
1365.00,0.0423
1364.00,0.0420
1363.00,0.0419
1362.00,0.0418
1361.00,0.0418
1360.00,0.0418
1359.00,0.0417
1358.00,0.0416
1357.00,0.0415
1356.00,0.0414
1355.00,0.0413
1354.00,0.0412
1353.00,0.0411
1352.00,0.0409
1351.00,0.0406
1350.00,0.0402
1349.00,0.0398
1348.00,0.0394
1347.00,0.0390
1346.00,0.0387
1345.00,0.0383
1344.00,0.0380
1343.00,0.0377
1342.00,0.0375
1341.00,0.0373
1340.00,0.0371
1339.00,0.0370
1338.00,0.0370
1337.00,0.0369
1336.00,0.0368
1335.00,0.0367
1334.00,0.0366
1333.00,0.0365
1332.00,0.0364
1331.00,0.0364
1330.00,0.0364
1329.00,0.0364
1328.00,0.0364
1327.00,0.0365
1326.00,0.0366
1325.00,0.0367
1324.00,0.0368
1323.00,0.0368
1322.00,0.0369
1321.00,0.0370
1320.00,0.0371
1319.00,0.0372
1318.00,0.0374
1317.00,0.0375
1316.00,0.0376
1315.00,0.0376
1314.00,0.0378
1313.00,0.0379
1312.00,0.0381
1311.00,0.0382
1310.00,0.0384
1309.00,0.0386
1308.00,0.0388
1307.00,0.0390
1306.00,0.0393
1305.00,0.0397
1304.00,0.0400
1303.00,0.0404
1302.00,0.0409
1301.00,0.0413
1300.00,0.0419
1299.00,0.0425
1298.00,0.0432
1297.00,0.0440
1296.00,0.0449
1295.00,0.0459
1294.00,0.0469
1293.00,0.0480
1292.00,0.0493
1291.00,0.0506
1290.00,0.0519
1289.00,0.0533
1288.00,0.0548
1287.00,0.0564
1286.00,0.0580
1285.00,0.0598
1284.00,0.0617
1283.00,0.0636
1282.00,0.0656
1281.00,0.0677
1280.00,0.0699
1279.00,0.0721
1278.00,0.0744
1277.00,0.0767
1276.00,0.0791
1275.00,0.0816
1274.00,0.0841
1273.00,0.0866
1272.00,0.0891
1271.00,0.0915
1270.00,0.0939
1269.00,0.0961
1268.00,0.0983
1267.00,0.1003
1266.00,0.1021
1265.00,0.1040
1264.00,0.1056
1263.00,0.1072
1262.00,0.1085
1261.00,0.1098
1260.00,0.1109
1259.00,0.1119
1258.00,0.1128
1257.00,0.1136
1256.00,0.1143
1255.00,0.1149
1254.00,0.1154
1253.00,0.1159
1252.00,0.1163
1251.00,0.1166
1250.00,0.1168
1249.00,0.1170
1248.00,0.1172
1247.00,0.1174
1246.00,0.1176
1245.00,0.1180
1244.00,0.1184
1243.00,0.1188
1242.00,0.1193
1241.00,0.1198
1240.00,0.1204
1239.00,0.1210
1238.00,0.1216
1237.00,0.1223
1236.00,0.1230
1235.00,0.1236
1234.00,0.1241
1233.00,0.1246
1232.00,0.1251
1231.00,0.1254
1230.00,0.1256
1229.00,0.1257
1228.00,0.1257
1227.00,0.1256
1226.00,0.1253
1225.00,0.1249
1224.00,0.1244
1223.00,0.1238
1222.00,0.1230
1221.00,0.1221
1220.00,0.1211
1219.00,0.1200
1218.00,0.1187
1217.00,0.1174
1216.00,0.1159
1215.00,0.1142
1214.00,0.1125
1213.00,0.1108
1212.00,0.1090
1211.00,0.1071
1210.00,0.1052
1209.00,0.1032
1208.00,0.1013
1207.00,0.0993
1206.00,0.0974
1205.00,0.0955
1204.00,0.0937
1203.00,0.0919
1202.00,0.0903
1201.00,0.0888
1200.00,0.0876
1199.00,0.0866
1198.00,0.0859
1197.00,0.0854
1196.00,0.0851
1195.00,0.0849
1194.00,0.0847
1193.00,0.0845
1192.00,0.0843
1191.00,0.0838
1190.00,0.0831
1189.00,0.0823
1188.00,0.0813
1187.00,0.0802
1186.00,0.0793
1185.00,0.0784
1184.00,0.0776
1183.00,0.0770
1182.00,0.0766
1181.00,0.0763
1180.00,0.0764
1179.00,0.0766
1178.00,0.0771
1177.00,0.0777
1176.00,0.0784
1175.00,0.0792
1174.00,0.0802
1173.00,0.0813
1172.00,0.0826
1171.00,0.0841
1170.00,0.0858
1169.00,0.0876
1168.00,0.0896
1167.00,0.0916
1166.00,0.0938
1165.00,0.0959
1164.00,0.0979
1163.00,0.0997
1162.00,0.1013
1161.00,0.1026
1160.00,0.1036
1159.00,0.1044
1158.00,0.1048
1157.00,0.1049
1156.00,0.1047
1155.00,0.1042
1154.00,0.1035
1153.00,0.1026
1152.00,0.1015
1151.00,0.1002
1150.00,0.0988
1149.00,0.0974
1148.00,0.0960
1147.00,0.0945
1146.00,0.0931
1145.00,0.0918
1144.00,0.0906
1143.00,0.0897
1142.00,0.0890
1141.00,0.0886
1140.00,0.0885
1139.00,0.0889
1138.00,0.0897
1137.00,0.0910
1136.00,0.0928
1135.00,0.0950
1134.00,0.0975
1133.00,0.1002
1132.00,0.1030
1131.00,0.1057
1130.00,0.1083
1129.00,0.1104
1128.00,0.1120
1127.00,0.1131
1126.00,0.1136
1125.00,0.1136
1124.00,0.1132
1123.00,0.1125
1122.00,0.1117
1121.00,0.1108
1120.00,0.1100
1119.00,0.1092
1118.00,0.1086
1117.00,0.1080
1116.00,0.1075
1115.00,0.1070
1114.00,0.1066
1113.00,0.1062
1112.00,0.1059
1111.00,0.1057
1110.00,0.1054
1109.00,0.1053
1108.00,0.1053
1107.00,0.1055
1106.00,0.1060
1105.00,0.1068
1104.00,0.1079
1103.00,0.1092
1102.00,0.1108
1101.00,0.1127
1100.00,0.1147
1099.00,0.1169
1098.00,0.1191
1097.00,0.1212
1096.00,0.1230
1095.00,0.1247
1094.00,0.1261
1093.00,0.1275
1092.00,0.1289
1091.00,0.1304
1090.00,0.1320
1089.00,0.1338
1088.00,0.1359
1087.00,0.1380
1086.00,0.1403
1085.00,0.1428
1084.00,0.1454
1083.00,0.1483
1082.00,0.1514
1081.00,0.1548
1080.00,0.1585
1079.00,0.1623
1078.00,0.1663
1077.00,0.1703
1076.00,0.1743
1075.00,0.1781
1074.00,0.1818
1073.00,0.1854
1072.00,0.1887
1071.00,0.1917
1070.00,0.1944
1069.00,0.1965
1068.00,0.1980
1067.00,0.1985
1066.00,0.1980
1065.00,0.1965
1064.00,0.1941
1063.00,0.1910
1062.00,0.1877
1061.00,0.1843
1060.00,0.1813
1059.00,0.1788
1058.00,0.1769
1057.00,0.1757
1056.00,0.1751
1055.00,0.1749
1054.00,0.1751
1053.00,0.1757
1052.00,0.1766
1051.00,0.1777
1050.00,0.1790
1049.00,0.1806
1048.00,0.1827
1047.00,0.1850
1046.00,0.1876
1045.00,0.1902
1044.00,0.1926
1043.00,0.1943
1042.00,0.1954
1041.00,0.1957
1040.00,0.1954
1039.00,0.1944
1038.00,0.1931
1037.00,0.1918
1036.00,0.1905
1035.00,0.1895
1034.00,0.1889
1033.00,0.1887
1032.00,0.1889
1031.00,0.1890
1030.00,0.1889
1029.00,0.1882
1028.00,0.1867
1027.00,0.1844
1026.00,0.1812
1025.00,0.1773
1024.00,0.1730
1023.00,0.1683
1022.00,0.1633
1021.00,0.1583
1020.00,0.1533
1019.00,0.1485
1018.00,0.1440
1017.00,0.1399
1016.00,0.1362
1015.00,0.1330
1014.00,0.1302
1013.00,0.1279
1012.00,0.1262
1011.00,0.1250
1010.00,0.1244
1009.00,0.1241
1008.00,0.1240
1007.00,0.1240
1006.00,0.1239
1005.00,0.1236
1004.00,0.1228
1003.00,0.1214
1002.00,0.1193
1001.00,0.1165
1000.00,0.1133
999.00,0.1098
998.00,0.1064
997.00,0.1033
996.00,0.1008
995.00,0.0987
994.00,0.0972
993.00,0.0961
992.00,0.0951
991.00,0.0943
990.00,0.0935
989.00,0.0927
988.00,0.0917
987.00,0.0906
986.00,0.0892
985.00,0.0878
984.00,0.0865
983.00,0.0854
982.00,0.0846
981.00,0.0841
980.00,0.0839
979.00,0.0839
978.00,0.0840
977.00,0.0844
976.00,0.0849
975.00,0.0856
974.00,0.0865
973.00,0.0875
972.00,0.0884
971.00,0.0890
970.00,0.0891
969.00,0.0886
968.00,0.0873
967.00,0.0852
966.00,0.0826
965.00,0.0796
964.00,0.0765
963.00,0.0737
962.00,0.0712
961.00,0.0692
960.00,0.0676
959.00,0.0665
958.00,0.0657
957.00,0.0652
956.00,0.0651
955.00,0.0653
954.00,0.0658
953.00,0.0665
952.00,0.0672
951.00,0.0681
950.00,0.0691
949.00,0.0702
948.00,0.0715
947.00,0.0730
946.00,0.0747
945.00,0.0767
944.00,0.0790
943.00,0.0817
942.00,0.0848
941.00,0.0884
940.00,0.0925
939.00,0.0972
938.00,0.1023
937.00,0.1078
936.00,0.1132
935.00,0.1185
934.00,0.1234
933.00,0.1277
932.00,0.1314
931.00,0.1344
930.00,0.1368
929.00,0.1388
928.00,0.1404
927.00,0.1415
926.00,0.1423
925.00,0.1426
924.00,0.1426
923.00,0.1422
922.00,0.1415
921.00,0.1406
920.00,0.1395
919.00,0.1382
918.00,0.1367
917.00,0.1350
916.00,0.1329
915.00,0.1307
914.00,0.1282
913.00,0.1257
912.00,0.1232
911.00,0.1207
910.00,0.1183
909.00,0.1159
908.00,0.1135
907.00,0.1114
906.00,0.1096
905.00,0.1082
904.00,0.1070
903.00,0.1060
902.00,0.1052
901.00,0.1045
900.00,0.1039
899.00,0.1034
898.00,0.1030
897.00,0.1028
896.00,0.1026
895.00,0.1024
894.00,0.1023
893.00,0.1021
892.00,0.1018
891.00,0.1015
890.00,0.1012
889.00,0.1007
888.00,0.0999
887.00,0.0989
886.00,0.0975
885.00,0.0959
884.00,0.0941
883.00,0.0921
882.00,0.0902
881.00,0.0887
880.00,0.0876
879.00,0.0871
878.00,0.0871
877.00,0.0875
876.00,0.0881
875.00,0.0887
874.00,0.0891
873.00,0.0891
872.00,0.0886
871.00,0.0878
870.00,0.0868
869.00,0.0859
868.00,0.0852
867.00,0.0848
866.00,0.0846
865.00,0.0849
864.00,0.0855
863.00,0.0865
862.00,0.0879
861.00,0.0895
860.00,0.0915
859.00,0.0937
858.00,0.0961
857.00,0.0990
856.00,0.1021
855.00,0.1054
854.00,0.1089
853.00,0.1123
852.00,0.1157
851.00,0.1188
850.00,0.1217
849.00,0.1240
848.00,0.1258
847.00,0.1268
846.00,0.1269
845.00,0.1262
844.00,0.1246
843.00,0.1224
842.00,0.1196
841.00,0.1165
840.00,0.1132
839.00,0.1097
838.00,0.1064
837.00,0.1034
836.00,0.1006
835.00,0.0981
834.00,0.0959
833.00,0.0940
832.00,0.0924
831.00,0.0909
830.00,0.0897
829.00,0.0887
828.00,0.0878
827.00,0.0871
826.00,0.0867
825.00,0.0864
824.00,0.0862
823.00,0.0861
822.00,0.0860
821.00,0.0860
820.00,0.0860
819.00,0.0859
818.00,0.0860
817.00,0.0863
816.00,0.0867
815.00,0.0873
814.00,0.0879
813.00,0.0886
812.00,0.0894
811.00,0.0903
810.00,0.0914
809.00,0.0926
808.00,0.0938
807.00,0.0950
806.00,0.0960
805.00,0.0970
804.00,0.0978
803.00,0.0985
802.00,0.0990
801.00,0.0994
800.00,0.0996
799.00,0.0997
798.00,0.0996
797.00,0.0994
796.00,0.0990
795.00,0.0986
794.00,0.0982
793.00,0.0978
792.00,0.0974
791.00,0.0971
790.00,0.0969
789.00,0.0967
788.00,0.0966
787.00,0.0966
786.00,0.0968
785.00,0.0971
784.00,0.0976
783.00,0.0982
782.00,0.0989
781.00,0.0997
780.00,0.1005
779.00,0.1015
778.00,0.1027
777.00,0.1039
776.00,0.1051
775.00,0.1061
774.00,0.1068
773.00,0.1073
772.00,0.1074
771.00,0.1073
770.00,0.1070
769.00,0.1065
768.00,0.1059
767.00,0.1054
766.00,0.1051
765.00,0.1050
764.00,0.1051
763.00,0.1052
762.00,0.1055
761.00,0.1059
760.00,0.1065
759.00,0.1070
758.00,0.1076
757.00,0.1083
756.00,0.1091
755.00,0.1102
754.00,0.1115
753.00,0.1131
752.00,0.1149
751.00,0.1169
750.00,0.1192
749.00,0.1215
748.00,0.1238
747.00,0.1260
746.00,0.1281
745.00,0.1301
744.00,0.1319
743.00,0.1335
742.00,0.1349
741.00,0.1364
740.00,0.1377
739.00,0.1390
738.00,0.1401
737.00,0.1410
736.00,0.1417
735.00,0.1423
734.00,0.1429
733.00,0.1435
732.00,0.1441
731.00,0.1447
730.00,0.1454
729.00,0.1462
728.00,0.1470
727.00,0.1478
726.00,0.1486
725.00,0.1492
724.00,0.1495
723.00,0.1495
722.00,0.1493
721.00,0.1491
720.00,0.1489
719.00,0.1486
718.00,0.1484
717.00,0.1484
716.00,0.1488
715.00,0.1496
714.00,0.1507
713.00,0.1521
712.00,0.1536
711.00,0.1553
710.00,0.1570
709.00,0.1589
708.00,0.1608
707.00,0.1627
706.00,0.1644
705.00,0.1659
704.00,0.1671
703.00,0.1678
702.00,0.1683
701.00,0.1683
700.00,0.1678
699.00,0.1670
698.00,0.1659
697.00,0.1647
696.00,0.1635
695.00,0.1622
694.00,0.1609
693.00,0.1594
692.00,0.1580
691.00,0.1566
690.00,0.1554
689.00,0.1545
688.00,0.1537
687.00,0.1530
686.00,0.1526
685.00,0.1521
684.00,0.1517
683.00,0.1513
682.00,0.1510
681.00,0.1509
680.00,0.1509
679.00,0.1511
678.00,0.1515
677.00,0.1519
676.00,0.1525
675.00,0.1532
674.00,0.1539
673.00,0.1545
672.00,0.1549
671.00,0.1550
670.00,0.1550
669.00,0.1555
668.00,0.1567
667.00,0.1581
666.00,0.1588
665.00,0.1589
664.00,0.1588
663.00,0.1588
662.00,0.1588
661.00,0.1589
660.00,0.1590
659.00,0.1592
658.00,0.1594
657.00,0.1596
656.00,0.1598
655.00,0.1600
654.00,0.1602
653.00,0.1604
652.00,0.1606
651.00,0.1608
650.00,0.1611
649.00,0.1613
648.00,0.1615
647.00,0.1618
646.00,0.1621
645.00,0.1624
644.00,0.1629
643.00,0.1634
642.00,0.1639
641.00,0.1644
640.00,0.1650
639.00,0.1658
638.00,0.1667
637.00,0.1678
636.00,0.1688
635.00,0.1697
634.00,0.1706
633.00,0.1717
632.00,0.1728
631.00,0.1741
630.00,0.1757
629.00,0.1775
628.00,0.1795
627.00,0.1815
626.00,0.1835
625.00,0.1856
624.00,0.1878
623.00,0.1898
622.00,0.1918
621.00,0.1935
620.00,0.1950
619.00,0.1964
618.00,0.1976
617.00,0.1988
616.00,0.1999
615.00,0.2010
614.00,0.2021
613.00,0.2034
612.00,0.2047
611.00,0.2060
610.00,0.2073
609.00,0.2083
608.00,0.2092
607.00,0.2099
606.00,0.2105
605.00,0.2109
604.00,0.2112
603.00,0.2111
602.00,0.2108
601.00,0.2105
600.00,0.2105
599.00,0.2107
598.00,0.2109
597.00,0.2113
596.00,0.2118
595.00,0.2123
594.00,0.2130
593.00,0.2140
592.00,0.2153
591.00,0.2168
590.00,0.2182
589.00,0.2194
588.00,0.2207
587.00,0.2221
586.00,0.2237
585.00,0.2254
584.00,0.2271
583.00,0.2287
582.00,0.2303
581.00,0.2319
580.00,0.2333
579.00,0.2345
578.00,0.2356
577.00,0.2366
576.00,0.2375
575.00,0.2381
574.00,0.2386
573.00,0.2389
572.00,0.2392
571.00,0.2396
570.00,0.2399
569.00,0.2402
568.00,0.2405
567.00,0.2405
566.00,0.2403
565.00,0.2403
564.00,0.2405
563.00,0.2409
562.00,0.2412
561.00,0.2413
560.00,0.2413
559.00,0.2412
558.00,0.2411
557.00,0.2410
556.00,0.2411
555.00,0.2413
554.00,0.2415
553.00,0.2417
552.00,0.2419
551.00,0.2420
550.00,0.2419
549.00,0.2419
548.00,0.2422
547.00,0.2430
546.00,0.2441
545.00,0.2452
544.00,0.2461
543.00,0.2468
542.00,0.2474
541.00,0.2476
540.00,0.2474
539.00,0.2470
538.00,0.2463
537.00,0.2456
536.00,0.2450
535.00,0.2444
534.00,0.2438
533.00,0.2430
532.00,0.2421
531.00,0.2414
530.00,0.2408
529.00,0.2403
528.00,0.2401
527.00,0.2401
526.00,0.2404
525.00,0.2407
524.00,0.2411
523.00,0.2414
522.00,0.2417
521.00,0.2421
520.00,0.2425
519.00,0.2431
518.00,0.2437
517.00,0.2442
516.00,0.2445
515.00,0.2445
514.00,0.2444
513.00,0.2441
512.00,0.2437
511.00,0.2431
510.00,0.2425
509.00,0.2419
508.00,0.2417
507.00,0.2419
506.00,0.2420
505.00,0.2419
504.00,0.2417
503.00,0.2419
502.00,0.2426
501.00,0.2432
500.00,0.2435
499.00,0.2435
498.00,0.2435
497.00,0.2438
496.00,0.2444
495.00,0.2449
494.00,0.2453
493.00,0.2456
492.00,0.2458
491.00,0.2463
490.00,0.2468
489.00,0.2471
488.00,0.2471
487.00,0.2469
486.00,0.2469
485.00,0.2472
484.00,0.2481
483.00,0.2490
482.00,0.2496
481.00,0.2497
480.00,0.2494
479.00,0.2492
478.00,0.2492
477.00,0.2494
476.00,0.2497
475.00,0.2501
474.00,0.2505
473.00,0.2505
472.00,0.2501
471.00,0.2497
470.00,0.2497
469.00,0.2504
468.00,0.2514
467.00,0.2523
466.00,0.2526
465.00,0.2524
464.00,0.2521
463.00,0.2520
462.00,0.2524
461.00,0.2531
460.00,0.2540
459.00,0.2549
458.00,0.2558
457.00,0.2564
456.00,0.2566
455.00,0.2565
454.00,0.2562
453.00,0.2559
452.00,0.2558
451.00,0.2561
450.00,0.2560
