Created as New Dataset,Sample 011 By Administrator Date Thursday, May 29 2025
cm-1,A
4000.00,0.0115
3999.00,0.0115
3998.00,0.0115
3997.00,0.0115
3996.00,0.0115
3995.00,0.0115
3994.00,0.0115
3993.00,0.0115
3992.00,0.0115
3991.00,0.0115
3990.00,0.0116
3989.00,0.0116
3988.00,0.0116
3987.00,0.0116
3986.00,0.0116
3985.00,0.0116
3984.00,0.0115
3983.00,0.0115
3982.00,0.0115
3981.00,0.0115
3980.00,0.0116
3979.00,0.0116
3978.00,0.0116
3977.00,0.0116
3976.00,0.0116
3975.00,0.0116
3974.00,0.0115
3973.00,0.0115
3972.00,0.0115
3971.00,0.0115
3970.00,0.0115
3969.00,0.0115
3968.00,0.0115
3967.00,0.0115
3966.00,0.0115
3965.00,0.0116
3964.00,0.0116
3963.00,0.0116
3962.00,0.0116
3961.00,0.0116
3960.00,0.0116
3959.00,0.0116
3958.00,0.0116
3957.00,0.0116
3956.00,0.0116
3955.00,0.0116
3954.00,0.0116
3953.00,0.0116
3952.00,0.0116
3951.00,0.0116
3950.00,0.0116
3949.00,0.0116
3948.00,0.0116
3947.00,0.0116
3946.00,0.0116
3945.00,0.0116
3944.00,0.0116
3943.00,0.0116
3942.00,0.0116
3941.00,0.0116
3940.00,0.0115
3939.00,0.0115
3938.00,0.0115
3937.00,0.0115
3936.00,0.0115
3935.00,0.0116
3934.00,0.0116
3933.00,0.0116
3932.00,0.0116
3931.00,0.0116
3930.00,0.0116
3929.00,0.0116
3928.00,0.0115
3927.00,0.0115
3926.00,0.0115
3925.00,0.0115
3924.00,0.0115
3923.00,0.0115
3922.00,0.0115
3921.00,0.0115
3920.00,0.0116
3919.00,0.0116
3918.00,0.0116
3917.00,0.0116
3916.00,0.0115
3915.00,0.0114
3914.00,0.0113
3913.00,0.0113
3912.00,0.0113
3911.00,0.0114
3910.00,0.0114
3909.00,0.0115
3908.00,0.0115
3907.00,0.0116
3906.00,0.0116
3905.00,0.0117
3904.00,0.0117
3903.00,0.0117
3902.00,0.0117
3901.00,0.0117
3900.00,0.0116
3899.00,0.0115
3898.00,0.0114
3897.00,0.0114
3896.00,0.0114
3895.00,0.0114
3894.00,0.0115
3893.00,0.0115
3892.00,0.0115
3891.00,0.0115
3890.00,0.0114
3889.00,0.0115
3888.00,0.0115
3887.00,0.0115
3886.00,0.0115
3885.00,0.0115
3884.00,0.0115
3883.00,0.0115
3882.00,0.0115
3881.00,0.0114
3880.00,0.0114
3879.00,0.0113
3878.00,0.0113
3877.00,0.0113
3876.00,0.0114
3875.00,0.0114
3874.00,0.0114
3873.00,0.0114
3872.00,0.0115
3871.00,0.0115
3870.00,0.0115
3869.00,0.0115
3868.00,0.0115
3867.00,0.0115
3866.00,0.0115
3865.00,0.0115
3864.00,0.0114
3863.00,0.0114
3862.00,0.0114
3861.00,0.0114
3860.00,0.0114
3859.00,0.0113
3858.00,0.0113
3857.00,0.0113
3856.00,0.0112
3855.00,0.0113
3854.00,0.0113
3853.00,0.0112
3852.00,0.0112
3851.00,0.0111
3850.00,0.0111
3849.00,0.0112
3848.00,0.0113
3847.00,0.0114
3846.00,0.0114
3845.00,0.0114
3844.00,0.0115
3843.00,0.0115
3842.00,0.0115
3841.00,0.0115
3840.00,0.0115
3839.00,0.0114
3838.00,0.0113
3837.00,0.0113
3836.00,0.0113
3835.00,0.0113
3834.00,0.0113
3833.00,0.0113
3832.00,0.0114
3831.00,0.0114
3830.00,0.0114
3829.00,0.0114
3828.00,0.0114
3827.00,0.0114
3826.00,0.0114
3825.00,0.0114
3824.00,0.0114
3823.00,0.0115
3822.00,0.0115
3821.00,0.0114
3820.00,0.0113
3819.00,0.0113
3818.00,0.0113
3817.00,0.0113
3816.00,0.0113
3815.00,0.0112
3814.00,0.0113
3813.00,0.0113
3812.00,0.0114
3811.00,0.0114
3810.00,0.0114
3809.00,0.0114
3808.00,0.0115
3807.00,0.0115
3806.00,0.0115
3805.00,0.0115
3804.00,0.0114
3803.00,0.0114
3802.00,0.0113
3801.00,0.0113
3800.00,0.0113
3799.00,0.0113
3798.00,0.0114
3797.00,0.0114
3796.00,0.0114
3795.00,0.0113
3794.00,0.0113
3793.00,0.0113
3792.00,0.0114
3791.00,0.0114
3790.00,0.0115
3789.00,0.0115
3788.00,0.0115
3787.00,0.0115
3786.00,0.0115
3785.00,0.0115
3784.00,0.0115
3783.00,0.0116
3782.00,0.0116
3781.00,0.0117
3780.00,0.0117
3779.00,0.0116
3778.00,0.0116
3777.00,0.0116
3776.00,0.0117
3775.00,0.0118
3774.00,0.0118
3773.00,0.0118
3772.00,0.0118
3771.00,0.0118
3770.00,0.0117
3769.00,0.0117
3768.00,0.0117
3767.00,0.0117
3766.00,0.0118
3765.00,0.0118
3764.00,0.0119
3763.00,0.0120
3762.00,0.0121
3761.00,0.0121
3760.00,0.0121
3759.00,0.0121
3758.00,0.0121
3757.00,0.0121
3756.00,0.0122
3755.00,0.0122
3754.00,0.0122
3753.00,0.0122
3752.00,0.0122
3751.00,0.0122
3750.00,0.0123
3749.00,0.0122
3748.00,0.0122
3747.00,0.0121
3746.00,0.0121
3745.00,0.0120
3744.00,0.0120
3743.00,0.0120
3742.00,0.0121
3741.00,0.0122
3740.00,0.0123
3739.00,0.0124
3738.00,0.0125
3737.00,0.0125
3736.00,0.0125
3735.00,0.0125
3734.00,0.0125
3733.00,0.0124
3732.00,0.0124
3731.00,0.0124
3730.00,0.0124
3729.00,0.0125
3728.00,0.0126
3727.00,0.0126
3726.00,0.0127
3725.00,0.0127
3724.00,0.0127
3723.00,0.0127
3722.00,0.0127
3721.00,0.0127
3720.00,0.0127
3719.00,0.0127
3718.00,0.0127
3717.00,0.0128
3716.00,0.0129
3715.00,0.0130
3714.00,0.0131
3713.00,0.0132
3712.00,0.0132
3711.00,0.0133
3710.00,0.0133
3709.00,0.0132
3708.00,0.0133
3707.00,0.0133
3706.00,0.0133
3705.00,0.0134
3704.00,0.0135
3703.00,0.0135
3702.00,0.0136
3701.00,0.0136
3700.00,0.0137
3699.00,0.0138
3698.00,0.0139
3697.00,0.0140
3696.00,0.0142
3695.00,0.0143
3694.00,0.0145
3693.00,0.0146
3692.00,0.0146
3691.00,0.0146
3690.00,0.0147
3689.00,0.0148
3688.00,0.0150
3687.00,0.0151
3686.00,0.0153
3685.00,0.0155
3684.00,0.0156
3683.00,0.0158
3682.00,0.0160
3681.00,0.0162
3680.00,0.0163
3679.00,0.0165
3678.00,0.0166
3677.00,0.0168
3676.00,0.0170
3675.00,0.0172
3674.00,0.0174
3673.00,0.0177
3672.00,0.0180
3671.00,0.0182
3670.00,0.0185
3669.00,0.0188
3668.00,0.0191
3667.00,0.0194
3666.00,0.0197
3665.00,0.0199
3664.00,0.0202
3663.00,0.0205
3662.00,0.0207
3661.00,0.0210
3660.00,0.0213
3659.00,0.0217
3658.00,0.0220
3657.00,0.0224
3656.00,0.0229
3655.00,0.0233
3654.00,0.0237
3653.00,0.0240
3652.00,0.0243
3651.00,0.0246
3650.00,0.0251
3649.00,0.0256
3648.00,0.0262
3647.00,0.0267
3646.00,0.0271
3645.00,0.0275
3644.00,0.0278
3643.00,0.0282
3642.00,0.0286
3641.00,0.0291
3640.00,0.0295
3639.00,0.0299
3638.00,0.0304
3637.00,0.0308
3636.00,0.0312
3635.00,0.0317
3634.00,0.0321
3633.00,0.0324
3632.00,0.0328
3631.00,0.0333
3630.00,0.0338
3629.00,0.0344
3628.00,0.0351
3627.00,0.0357
3626.00,0.0362
3625.00,0.0366
3624.00,0.0370
3623.00,0.0373
3622.00,0.0377
3621.00,0.0381
3620.00,0.0386
3619.00,0.0392
3618.00,0.0398
3617.00,0.0404
3616.00,0.0409
3615.00,0.0413
3614.00,0.0418
3613.00,0.0423
3612.00,0.0428
3611.00,0.0434
3610.00,0.0439
3609.00,0.0444
3608.00,0.0449
3607.00,0.0454
3606.00,0.0459
3605.00,0.0463
3604.00,0.0467
3603.00,0.0471
3602.00,0.0475
3601.00,0.0479
3600.00,0.0483
3599.00,0.0487
3598.00,0.0491
3597.00,0.0496
3596.00,0.0500
3595.00,0.0506
3594.00,0.0511
3593.00,0.0517
3592.00,0.0522
3591.00,0.0526
3590.00,0.0529
3589.00,0.0533
3588.00,0.0538
3587.00,0.0543
3586.00,0.0549
3585.00,0.0554
3584.00,0.0559
3583.00,0.0563
3582.00,0.0566
3581.00,0.0570
3580.00,0.0574
3579.00,0.0578
3578.00,0.0583
3577.00,0.0587
3576.00,0.0591
3575.00,0.0596
3574.00,0.0600
3573.00,0.0604
3572.00,0.0608
3571.00,0.0612
3570.00,0.0615
3569.00,0.0619
3568.00,0.0624
3567.00,0.0630
3566.00,0.0636
3565.00,0.0641
3564.00,0.0646
3563.00,0.0650
3562.00,0.0653
3561.00,0.0657
3560.00,0.0661
3559.00,0.0666
3558.00,0.0670
3557.00,0.0674
3556.00,0.0678
3555.00,0.0682
3554.00,0.0686
3553.00,0.0690
3552.00,0.0695
3551.00,0.0700
3550.00,0.0704
3549.00,0.0708
3548.00,0.0712
3547.00,0.0716
3546.00,0.0720
3545.00,0.0725
3544.00,0.0730
3543.00,0.0735
3542.00,0.0739
3541.00,0.0743
3540.00,0.0747
3539.00,0.0750
3538.00,0.0754
3537.00,0.0758
3536.00,0.0761
3535.00,0.0765
3534.00,0.0768
3533.00,0.0772
3532.00,0.0776
3531.00,0.0780
3530.00,0.0784
3529.00,0.0788
3528.00,0.0793
3527.00,0.0798
3526.00,0.0803
3525.00,0.0808
3524.00,0.0812
3523.00,0.0816
3522.00,0.0819
3521.00,0.0823
3520.00,0.0826
3519.00,0.0830
3518.00,0.0834
3517.00,0.0837
3516.00,0.0841
3515.00,0.0845
3514.00,0.0849
3513.00,0.0853
3512.00,0.0856
3511.00,0.0860
3510.00,0.0864
3509.00,0.0868
3508.00,0.0873
3507.00,0.0877
3506.00,0.0881
3505.00,0.0884
3504.00,0.0889
3503.00,0.0893
3502.00,0.0897
3501.00,0.0901
3500.00,0.0905
3499.00,0.0908
3498.00,0.0911
3497.00,0.0915
3496.00,0.0918
3495.00,0.0922
3494.00,0.0925
3493.00,0.0929
3492.00,0.0932
3491.00,0.0935
3490.00,0.0938
3489.00,0.0942
3488.00,0.0946
3487.00,0.0950
3486.00,0.0953
3485.00,0.0957
3484.00,0.0960
3483.00,0.0964
3482.00,0.0967
3481.00,0.0971
3480.00,0.0975
3479.00,0.0978
3478.00,0.0980
3477.00,0.0983
3476.00,0.0986
3475.00,0.0990
3474.00,0.0993
3473.00,0.0996
3472.00,0.1000
3471.00,0.1004
3470.00,0.1008
3469.00,0.1012
3468.00,0.1015
3467.00,0.1018
3466.00,0.1021
3465.00,0.1023
3464.00,0.1026
3463.00,0.1029
3462.00,0.1032
3461.00,0.1035
3460.00,0.1038
3459.00,0.1040
3458.00,0.1042
3457.00,0.1045
3456.00,0.1047
3455.00,0.1050
3454.00,0.1053
3453.00,0.1056
3452.00,0.1058
3451.00,0.1061
3450.00,0.1063
3449.00,0.1066
3448.00,0.1068
3447.00,0.1070
3446.00,0.1073
3445.00,0.1075
3444.00,0.1078
3443.00,0.1080
3442.00,0.1082
3441.00,0.1085
3440.00,0.1088
3439.00,0.1091
3438.00,0.1094
3437.00,0.1097
3436.00,0.1099
3435.00,0.1101
3434.00,0.1102
3433.00,0.1103
3432.00,0.1105
3431.00,0.1106
3430.00,0.1108
3429.00,0.1109
3428.00,0.1110
3427.00,0.1112
3426.00,0.1113
3425.00,0.1114
3424.00,0.1115
3423.00,0.1116
3422.00,0.1117
3421.00,0.1119
3420.00,0.1121
3419.00,0.1123
3418.00,0.1124
3417.00,0.1125
3416.00,0.1126
3415.00,0.1127
3414.00,0.1129
3413.00,0.1130
3412.00,0.1131
3411.00,0.1131
3410.00,0.1131
3409.00,0.1131
3408.00,0.1131
3407.00,0.1132
3406.00,0.1132
3405.00,0.1133
3404.00,0.1135
3403.00,0.1136
3402.00,0.1137
3401.00,0.1137
3400.00,0.1137
3399.00,0.1136
3398.00,0.1135
3397.00,0.1134
3396.00,0.1134
3395.00,0.1134
3394.00,0.1134
3393.00,0.1134
3392.00,0.1133
3391.00,0.1132
3390.00,0.1131
3389.00,0.1129
3388.00,0.1128
3387.00,0.1127
3386.00,0.1126
3385.00,0.1124
3384.00,0.1123
3383.00,0.1123
3382.00,0.1122
3381.00,0.1121
3380.00,0.1121
3379.00,0.1119
3378.00,0.1118
3377.00,0.1116
3376.00,0.1114
3375.00,0.1113
3374.00,0.1112
3373.00,0.1111
3372.00,0.1110
3371.00,0.1108
3370.00,0.1106
3369.00,0.1105
3368.00,0.1102
3367.00,0.1100
3366.00,0.1097
3365.00,0.1094
3364.00,0.1092
3363.00,0.1090
3362.00,0.1088
3361.00,0.1086
3360.00,0.1084
3359.00,0.1081
3358.00,0.1078
3357.00,0.1075
3356.00,0.1072
3355.00,0.1070
3354.00,0.1068
3353.00,0.1066
3352.00,0.1064
3351.00,0.1062
3350.00,0.1059
3349.00,0.1056
3348.00,0.1053
3347.00,0.1049
3346.00,0.1047
3345.00,0.1044
3344.00,0.1041
3343.00,0.1039
3342.00,0.1036
3341.00,0.1034
3340.00,0.1031
3339.00,0.1027
3338.00,0.1024
3337.00,0.1020
3336.00,0.1017
3335.00,0.1014
3334.00,0.1010
3333.00,0.1007
3332.00,0.1004
3331.00,0.1002
3330.00,0.0999
3329.00,0.0997
3328.00,0.0994
3327.00,0.0991
3326.00,0.0989
3325.00,0.0986
3324.00,0.0982
3323.00,0.0979
3322.00,0.0976
3321.00,0.0973
3320.00,0.0969
3319.00,0.0966
3318.00,0.0964
3317.00,0.0961
3316.00,0.0958
3315.00,0.0956
3314.00,0.0953
3313.00,0.0950
3312.00,0.0947
3311.00,0.0945
3310.00,0.0942
3309.00,0.0940
3308.00,0.0937
3307.00,0.0935
3306.00,0.0933
3305.00,0.0930
3304.00,0.0927
3303.00,0.0924
3302.00,0.0921
3301.00,0.0918
3300.00,0.0915
3299.00,0.0912
3298.00,0.0910
3297.00,0.0908
3296.00,0.0906
3295.00,0.0903
3294.00,0.0901
3293.00,0.0899
3292.00,0.0896
3291.00,0.0893
3290.00,0.0890
3289.00,0.0888
3288.00,0.0885
3287.00,0.0882
3286.00,0.0880
3285.00,0.0877
3284.00,0.0875
3283.00,0.0872
3282.00,0.0870
3281.00,0.0867
3280.00,0.0864
3279.00,0.0862
3278.00,0.0860
3277.00,0.0858
3276.00,0.0856
3275.00,0.0854
3274.00,0.0852
3273.00,0.0849
3272.00,0.0847
3271.00,0.0844
3270.00,0.0842
3269.00,0.0839
3268.00,0.0836
3267.00,0.0833
3266.00,0.0831
3265.00,0.0828
3264.00,0.0825
3263.00,0.0823
3262.00,0.0821
3261.00,0.0819
3260.00,0.0817
3259.00,0.0814
3258.00,0.0812
3257.00,0.0809
3256.00,0.0806
3255.00,0.0803
3254.00,0.0800
3253.00,0.0797
3252.00,0.0794
3251.00,0.0791
3250.00,0.0789
3249.00,0.0786
3248.00,0.0783
3247.00,0.0780
3246.00,0.0777
3245.00,0.0773
3244.00,0.0770
3243.00,0.0768
3242.00,0.0765
3241.00,0.0762
3240.00,0.0759
3239.00,0.0756
3238.00,0.0753
3237.00,0.0750
3236.00,0.0747
3235.00,0.0745
3234.00,0.0741
3233.00,0.0738
3232.00,0.0734
3231.00,0.0730
3230.00,0.0726
3229.00,0.0723
3228.00,0.0719
3227.00,0.0716
3226.00,0.0713
3225.00,0.0709
3224.00,0.0706
3223.00,0.0702
3222.00,0.0698
3221.00,0.0695
3220.00,0.0691
3219.00,0.0687
3218.00,0.0683
3217.00,0.0680
3216.00,0.0676
3215.00,0.0672
3214.00,0.0669
3213.00,0.0665
3212.00,0.0661
3211.00,0.0657
3210.00,0.0653
3209.00,0.0650
3208.00,0.0647
3207.00,0.0643
3206.00,0.0640
3205.00,0.0636
3204.00,0.0632
3203.00,0.0628
3202.00,0.0625
3201.00,0.0621
3200.00,0.0617
3199.00,0.0614
3198.00,0.0610
3197.00,0.0606
3196.00,0.0602
3195.00,0.0598
3194.00,0.0594
3193.00,0.0591
3192.00,0.0587
3191.00,0.0583
3190.00,0.0579
3189.00,0.0575
3188.00,0.0572
3187.00,0.0568
3186.00,0.0565
3185.00,0.0561
3184.00,0.0557
3183.00,0.0553
3182.00,0.0550
3181.00,0.0546
3180.00,0.0542
3179.00,0.0538
3178.00,0.0535
3177.00,0.0532
3176.00,0.0528
3175.00,0.0525
3174.00,0.0522
3173.00,0.0518
3172.00,0.0514
3171.00,0.0510
3170.00,0.0507
3169.00,0.0503
3168.00,0.0500
3167.00,0.0496
3166.00,0.0493
3165.00,0.0490
3164.00,0.0486
3163.00,0.0483
3162.00,0.0480
3161.00,0.0477
3160.00,0.0475
3159.00,0.0472
3158.00,0.0469
3157.00,0.0465
3156.00,0.0462
3155.00,0.0458
3154.00,0.0455
3153.00,0.0452
3152.00,0.0450
3151.00,0.0447
3150.00,0.0444
3149.00,0.0441
3148.00,0.0438
3147.00,0.0435
3146.00,0.0432
3145.00,0.0429
3144.00,0.0426
3143.00,0.0423
3142.00,0.0420
3141.00,0.0418
3140.00,0.0415
3139.00,0.0413
3138.00,0.0410
3137.00,0.0407
3136.00,0.0403
3135.00,0.0400
3134.00,0.0398
3133.00,0.0395
3132.00,0.0393
3131.00,0.0390
3130.00,0.0388
3129.00,0.0385
3128.00,0.0382
3127.00,0.0379
3126.00,0.0377
3125.00,0.0374
3124.00,0.0372
3123.00,0.0370
3122.00,0.0368
3121.00,0.0366
3120.00,0.0364
3119.00,0.0362
3118.00,0.0360
3117.00,0.0357
3116.00,0.0355
3115.00,0.0352
3114.00,0.0349
3113.00,0.0347
3112.00,0.0345
3111.00,0.0343
3110.00,0.0341
3109.00,0.0340
3108.00,0.0337
3107.00,0.0335
3106.00,0.0332
3105.00,0.0330
3104.00,0.0328
3103.00,0.0326
3102.00,0.0325
3101.00,0.0323
3100.00,0.0321
3099.00,0.0319
3098.00,0.0317
3097.00,0.0315
3096.00,0.0313
3095.00,0.0311
3094.00,0.0309
3093.00,0.0307
3092.00,0.0306
3091.00,0.0304
3090.00,0.0302
3089.00,0.0301
3088.00,0.0299
3087.00,0.0298
3086.00,0.0296
3085.00,0.0295
3084.00,0.0293
3083.00,0.0291
3082.00,0.0290
3081.00,0.0288
3080.00,0.0286
3079.00,0.0285
3078.00,0.0283
3077.00,0.0281
3076.00,0.0279
3075.00,0.0277
3074.00,0.0275
3073.00,0.0274
3072.00,0.0273
3071.00,0.0272
3070.00,0.0271
3069.00,0.0270
3068.00,0.0268
3067.00,0.0267
3066.00,0.0265
3065.00,0.0264
3064.00,0.0262
3063.00,0.0261
3062.00,0.0260
3061.00,0.0258
3060.00,0.0257
3059.00,0.0255
3058.00,0.0254
3057.00,0.0252
3056.00,0.0250
3055.00,0.0249
3054.00,0.0248
3053.00,0.0247
3052.00,0.0246
3051.00,0.0245
3050.00,0.0243
3049.00,0.0242
3048.00,0.0241
3047.00,0.0240
3046.00,0.0240
3045.00,0.0239
3044.00,0.0237
3043.00,0.0236
3042.00,0.0235
3041.00,0.0234
3040.00,0.0233
3039.00,0.0232
3038.00,0.0230
3037.00,0.0229
3036.00,0.0228
3035.00,0.0227
3034.00,0.0226
3033.00,0.0225
3032.00,0.0224
3031.00,0.0223
3030.00,0.0222
3029.00,0.0221
3028.00,0.0220
3027.00,0.0219
3026.00,0.0219
3025.00,0.0218
3024.00,0.0217
3023.00,0.0216
3022.00,0.0215
3021.00,0.0214
3020.00,0.0213
3019.00,0.0213
3018.00,0.0213
3017.00,0.0212
3016.00,0.0211
3015.00,0.0211
3014.00,0.0209
3013.00,0.0209
3012.00,0.0208
3011.00,0.0207
3010.00,0.0207
3009.00,0.0206
3008.00,0.0205
3007.00,0.0205
3006.00,0.0205
3005.00,0.0204
3004.00,0.0203
3003.00,0.0203
3002.00,0.0202
3001.00,0.0201
3000.00,0.0201
2999.00,0.0200
2998.00,0.0200
2997.00,0.0200
2996.00,0.0200
2995.00,0.0200
2994.00,0.0199
2993.00,0.0199
2992.00,0.0199
2991.00,0.0199
2990.00,0.0199
2989.00,0.0198
2988.00,0.0198
2987.00,0.0198
2986.00,0.0199
2985.00,0.0199
2984.00,0.0200
2983.00,0.0200
2982.00,0.0200
2981.00,0.0200
2980.00,0.0201
2979.00,0.0201
2978.00,0.0201
2977.00,0.0201
2976.00,0.0201
2975.00,0.0201
2974.00,0.0201
2973.00,0.0201
2972.00,0.0200
2971.00,0.0200
2970.00,0.0201
2969.00,0.0201
2968.00,0.0201
2967.00,0.0201
2966.00,0.0201
2965.00,0.0201
2964.00,0.0201
2963.00,0.0201
2962.00,0.0201
2961.00,0.0201
2960.00,0.0201
2959.00,0.0201
2958.00,0.0201
2957.00,0.0201
2956.00,0.0200
2955.00,0.0200
2954.00,0.0199
2953.00,0.0199
2952.00,0.0199
2951.00,0.0199
2950.00,0.0198
2949.00,0.0198
2948.00,0.0198
2947.00,0.0198
2946.00,0.0198
2945.00,0.0198
2944.00,0.0197
2943.00,0.0197
2942.00,0.0197
2941.00,0.0197
2940.00,0.0197
2939.00,0.0198
2938.00,0.0198
2937.00,0.0198
2936.00,0.0198
2935.00,0.0198
2934.00,0.0198
2933.00,0.0198
2932.00,0.0198
2931.00,0.0199
2930.00,0.0199
2929.00,0.0199
2928.00,0.0199
2927.00,0.0200
2926.00,0.0200
2925.00,0.0200
2924.00,0.0200
2923.00,0.0200
2922.00,0.0200
2921.00,0.0200
2920.00,0.0200
2919.00,0.0200
2918.00,0.0199
2917.00,0.0199
2916.00,0.0198
2915.00,0.0196
2914.00,0.0195
2913.00,0.0193
2912.00,0.0192
2911.00,0.0191
2910.00,0.0190
2909.00,0.0189
2908.00,0.0188
2907.00,0.0187
2906.00,0.0186
2905.00,0.0185
2904.00,0.0185
2903.00,0.0184
2902.00,0.0182
2901.00,0.0181
2900.00,0.0180
2899.00,0.0180
2898.00,0.0179
2897.00,0.0179
2896.00,0.0178
2895.00,0.0177
2894.00,0.0175
2893.00,0.0174
2892.00,0.0173
2891.00,0.0173
2890.00,0.0172
2889.00,0.0172
2888.00,0.0171
2887.00,0.0170
2886.00,0.0169
2885.00,0.0168
2884.00,0.0168
2883.00,0.0167
2882.00,0.0166
2881.00,0.0166
2880.00,0.0165
2879.00,0.0165
2878.00,0.0165
2877.00,0.0165
2876.00,0.0164
2875.00,0.0163
2874.00,0.0163
2873.00,0.0162
2872.00,0.0161
2871.00,0.0161
2870.00,0.0160
2869.00,0.0159
2868.00,0.0159
2867.00,0.0158
2866.00,0.0157
2865.00,0.0156
2864.00,0.0155
2863.00,0.0154
2862.00,0.0154
2861.00,0.0153
2860.00,0.0153
2859.00,0.0153
2858.00,0.0153
2857.00,0.0153
2856.00,0.0153
2855.00,0.0154
2854.00,0.0154
2853.00,0.0154
2852.00,0.0154
2851.00,0.0153
2850.00,0.0152
2849.00,0.0151
2848.00,0.0149
2847.00,0.0148
2846.00,0.0146
2845.00,0.0145
2844.00,0.0144
2843.00,0.0142
2842.00,0.0141
2841.00,0.0140
2840.00,0.0140
2839.00,0.0139
2838.00,0.0138
2837.00,0.0137
2836.00,0.0137
2835.00,0.0137
2834.00,0.0136
2833.00,0.0136
2832.00,0.0135
2831.00,0.0135
2830.00,0.0134
2829.00,0.0133
2828.00,0.0133
2827.00,0.0133
2826.00,0.0133
2825.00,0.0132
2824.00,0.0132
2823.00,0.0131
2822.00,0.0131
2821.00,0.0131
2820.00,0.0130
2819.00,0.0130
2818.00,0.0129
2817.00,0.0128
2816.00,0.0128
2815.00,0.0127
2814.00,0.0127
2813.00,0.0127
2812.00,0.0127
2811.00,0.0127
2810.00,0.0127
2809.00,0.0127
2808.00,0.0126
2807.00,0.0126
2806.00,0.0125
2805.00,0.0125
2804.00,0.0125
2803.00,0.0124
2802.00,0.0124
2801.00,0.0124
2800.00,0.0123
2799.00,0.0123
2798.00,0.0123
2797.00,0.0123
2796.00,0.0123
2795.00,0.0122
2794.00,0.0122
2793.00,0.0122
2792.00,0.0122
2791.00,0.0122
2790.00,0.0122
2789.00,0.0122
2788.00,0.0121
2787.00,0.0120
2786.00,0.0120
2785.00,0.0119
2784.00,0.0119
2783.00,0.0119
2782.00,0.0119
2781.00,0.0119
2780.00,0.0119
2779.00,0.0119
2778.00,0.0119
2777.00,0.0119
2776.00,0.0118
2775.00,0.0118
2774.00,0.0118
2773.00,0.0118
2772.00,0.0118
2771.00,0.0117
2770.00,0.0117
2769.00,0.0117
2768.00,0.0117
2767.00,0.0116
2766.00,0.0116
2765.00,0.0116
2764.00,0.0116
2763.00,0.0116
2762.00,0.0116
2761.00,0.0115
2760.00,0.0115
2759.00,0.0115
2758.00,0.0115
2757.00,0.0114
2756.00,0.0114
2755.00,0.0114
2754.00,0.0114
2753.00,0.0114
2752.00,0.0114
2751.00,0.0114
2750.00,0.0114
2749.00,0.0114
2748.00,0.0113
2747.00,0.0113
2746.00,0.0113
2745.00,0.0113
2744.00,0.0113
2743.00,0.0112
2742.00,0.0112
2741.00,0.0112
2740.00,0.0112
2739.00,0.0112
2738.00,0.0112
2737.00,0.0112
2736.00,0.0112
2735.00,0.0112
2734.00,0.0112
2733.00,0.0112
2732.00,0.0112
2731.00,0.0112
2730.00,0.0111
2729.00,0.0111
2728.00,0.0111
2727.00,0.0111
2726.00,0.0111
2725.00,0.0111
2724.00,0.0111
2723.00,0.0111
2722.00,0.0111
2721.00,0.0111
2720.00,0.0110
2719.00,0.0110
2718.00,0.0110
2717.00,0.0110
2716.00,0.0110
2715.00,0.0109
2714.00,0.0109
2713.00,0.0109
2712.00,0.0108
2711.00,0.0108
2710.00,0.0109
2709.00,0.0109
2708.00,0.0109
2707.00,0.0108
2706.00,0.0108
2705.00,0.0108
2704.00,0.0108
2703.00,0.0108
2702.00,0.0108
2701.00,0.0108
2700.00,0.0108
2699.00,0.0108
2698.00,0.0108
2697.00,0.0108
2696.00,0.0108
2695.00,0.0108
2694.00,0.0108
2693.00,0.0108
2692.00,0.0108
2691.00,0.0107
2690.00,0.0107
2689.00,0.0107
2688.00,0.0107
2687.00,0.0106
2686.00,0.0106
2685.00,0.0106
2684.00,0.0106
2683.00,0.0106
2682.00,0.0106
2681.00,0.0106
2680.00,0.0106
2679.00,0.0106
2678.00,0.0106
2677.00,0.0106
2676.00,0.0106
2675.00,0.0106
2674.00,0.0105
2673.00,0.0105
2672.00,0.0105
2671.00,0.0105
2670.00,0.0105
2669.00,0.0105
2668.00,0.0106
2667.00,0.0106
2666.00,0.0106
2665.00,0.0106
2664.00,0.0107
2663.00,0.0108
2662.00,0.0108
2661.00,0.0109
2660.00,0.0109
2659.00,0.0109
2658.00,0.0110
2657.00,0.0110
2656.00,0.0110
2655.00,0.0110
2654.00,0.0110
2653.00,0.0110
2652.00,0.0109
2651.00,0.0109
2650.00,0.0109
2649.00,0.0109
2648.00,0.0109
2647.00,0.0110
2646.00,0.0110
2645.00,0.0109
2644.00,0.0109
2643.00,0.0108
2642.00,0.0107
2641.00,0.0107
2640.00,0.0106
2639.00,0.0106
2638.00,0.0106
2637.00,0.0107
2636.00,0.0107
2635.00,0.0107
2634.00,0.0107
2633.00,0.0107
2632.00,0.0107
2631.00,0.0106
2630.00,0.0106
2629.00,0.0106
2628.00,0.0105
2627.00,0.0104
2626.00,0.0104
2625.00,0.0103
2624.00,0.0103
2623.00,0.0103
2622.00,0.0103
2621.00,0.0103
2620.00,0.0103
2619.00,0.0102
2618.00,0.0102
2617.00,0.0101
2616.00,0.0101
2615.00,0.0102
2614.00,0.0102
2613.00,0.0102
2612.00,0.0102
2611.00,0.0102
2610.00,0.0102
2609.00,0.0102
2608.00,0.0101
2607.00,0.0101
2606.00,0.0100
2605.00,0.0099
2604.00,0.0099
2603.00,0.0099
2602.00,0.0099
2601.00,0.0099
2600.00,0.0099
2599.00,0.0099
2598.00,0.0098
2597.00,0.0097
2596.00,0.0096
2595.00,0.0096
2594.00,0.0096
2593.00,0.0096
2592.00,0.0096
2591.00,0.0096
2590.00,0.0096
2589.00,0.0096
2588.00,0.0096
2587.00,0.0096
2586.00,0.0096
2585.00,0.0096
2584.00,0.0096
2583.00,0.0096
2582.00,0.0095
2581.00,0.0095
2580.00,0.0095
2579.00,0.0094
2578.00,0.0094
2577.00,0.0094
2576.00,0.0093
2575.00,0.0093
2574.00,0.0093
2573.00,0.0093
2572.00,0.0093
2571.00,0.0093
2570.00,0.0093
2569.00,0.0092
2568.00,0.0093
2567.00,0.0092
2566.00,0.0092
2565.00,0.0092
2564.00,0.0092
2563.00,0.0092
2562.00,0.0091
2561.00,0.0091
2560.00,0.0091
2559.00,0.0090
2558.00,0.0090
2557.00,0.0090
2556.00,0.0090
2555.00,0.0090
2554.00,0.0090
2553.00,0.0090
2552.00,0.0090
2551.00,0.0090
2550.00,0.0090
2549.00,0.0089
2548.00,0.0089
2547.00,0.0089
2546.00,0.0089
2545.00,0.0089
2544.00,0.0089
2543.00,0.0089
2542.00,0.0089
2541.00,0.0089
2540.00,0.0089
2539.00,0.0089
2538.00,0.0089
2537.00,0.0089
2536.00,0.0090
2535.00,0.0089
2534.00,0.0089
2533.00,0.0088
2532.00,0.0088
2531.00,0.0088
2530.00,0.0088
2529.00,0.0087
2528.00,0.0087
2527.00,0.0086
2526.00,0.0086
2525.00,0.0086
2524.00,0.0087
2523.00,0.0087
2522.00,0.0087
2521.00,0.0087
2520.00,0.0087
2519.00,0.0087
2518.00,0.0087
2517.00,0.0087
2516.00,0.0087
2515.00,0.0087
2514.00,0.0087
2513.00,0.0087
2512.00,0.0087
2511.00,0.0087
2510.00,0.0087
2509.00,0.0087
2508.00,0.0088
2507.00,0.0088
2506.00,0.0088
2505.00,0.0087
2504.00,0.0087
2503.00,0.0086
2502.00,0.0086
2501.00,0.0086
2500.00,0.0086
2499.00,0.0086
2498.00,0.0086
2497.00,0.0086
2496.00,0.0087
2495.00,0.0087
2494.00,0.0087
2493.00,0.0087
2492.00,0.0087
2491.00,0.0086
2490.00,0.0086
2489.00,0.0085
2488.00,0.0085
2487.00,0.0084
2486.00,0.0084
2485.00,0.0084
2484.00,0.0083
2483.00,0.0083
2482.00,0.0083
2481.00,0.0083
2480.00,0.0083
2479.00,0.0083
2478.00,0.0083
2477.00,0.0084
2476.00,0.0084
2475.00,0.0084
2474.00,0.0084
2473.00,0.0084
2472.00,0.0084
2471.00,0.0084
2470.00,0.0084
2469.00,0.0083
2468.00,0.0083
2467.00,0.0084
2466.00,0.0084
2465.00,0.0084
2464.00,0.0085
2463.00,0.0085
2462.00,0.0086
2461.00,0.0086
2460.00,0.0086
2459.00,0.0087
2458.00,0.0087
2457.00,0.0087
2456.00,0.0087
2455.00,0.0087
2454.00,0.0087
2453.00,0.0086
2452.00,0.0086
2451.00,0.0086
2450.00,0.0086
2449.00,0.0086
2448.00,0.0086
2447.00,0.0087
2446.00,0.0087
2445.00,0.0086
2444.00,0.0086
2443.00,0.0085
2442.00,0.0084
2441.00,0.0084
2440.00,0.0085
2439.00,0.0085
2438.00,0.0085
2437.00,0.0084
2436.00,0.0083
2435.00,0.0083
2434.00,0.0083
2433.00,0.0083
2432.00,0.0083
2431.00,0.0083
2430.00,0.0083
2429.00,0.0083
2428.00,0.0083
2427.00,0.0083
2426.00,0.0083
2425.00,0.0083
2424.00,0.0083
2423.00,0.0083
2422.00,0.0083
2421.00,0.0083
2420.00,0.0083
2419.00,0.0083
2418.00,0.0083
2417.00,0.0083
2416.00,0.0082
2415.00,0.0082
2414.00,0.0082
2413.00,0.0082
2412.00,0.0082
2411.00,0.0083
2410.00,0.0083
2409.00,0.0083
2408.00,0.0082
2407.00,0.0082
2406.00,0.0081
2405.00,0.0081
2404.00,0.0080
2403.00,0.0080
2402.00,0.0080
2401.00,0.0080
2400.00,0.0081
2399.00,0.0081
2398.00,0.0081
2397.00,0.0081
2396.00,0.0081
2395.00,0.0081
2394.00,0.0081
2393.00,0.0081
2392.00,0.0081
2391.00,0.0082
2390.00,0.0082
2389.00,0.0082
2388.00,0.0083
2387.00,0.0082
2386.00,0.0082
2385.00,0.0082
2384.00,0.0082
2383.00,0.0082
2382.00,0.0082
2381.00,0.0082
2380.00,0.0082
2379.00,0.0082
2378.00,0.0082
2377.00,0.0082
2376.00,0.0083
2375.00,0.0083
2374.00,0.0084
2373.00,0.0085
2372.00,0.0085
2371.00,0.0085
2370.00,0.0086
2369.00,0.0086
2368.00,0.0086
2367.00,0.0086
2366.00,0.0086
2365.00,0.0087
2364.00,0.0087
2363.00,0.0088
2362.00,0.0089
2361.00,0.0089
2360.00,0.0090
2359.00,0.0090
2358.00,0.0090
2357.00,0.0089
2356.00,0.0088
2355.00,0.0087
2354.00,0.0086
2353.00,0.0085
2352.00,0.0084
2351.00,0.0083
2350.00,0.0084
2349.00,0.0087
2348.00,0.0091
2347.00,0.0094
2346.00,0.0095
2345.00,0.0094
2344.00,0.0094
2343.00,0.0094
2342.00,0.0096
2341.00,0.0097
2340.00,0.0097
2339.00,0.0098
2338.00,0.0098
2337.00,0.0097
2336.00,0.0097
2335.00,0.0096
2334.00,0.0096
2333.00,0.0095
2332.00,0.0095
2331.00,0.0094
2330.00,0.0095
2329.00,0.0096
2328.00,0.0099
2327.00,0.0104
2326.00,0.0110
2325.00,0.0115
2324.00,0.0118
2323.00,0.0119
2322.00,0.0116
2321.00,0.0113
2320.00,0.0111
2319.00,0.0110
2318.00,0.0109
2317.00,0.0109
2316.00,0.0109
2315.00,0.0109
2314.00,0.0108
2313.00,0.0107
2312.00,0.0107
2311.00,0.0107
2310.00,0.0107
2309.00,0.0107
2308.00,0.0106
2307.00,0.0105
2306.00,0.0104
2305.00,0.0104
2304.00,0.0104
2303.00,0.0104
2302.00,0.0105
2301.00,0.0105
2300.00,0.0105
2299.00,0.0106
2298.00,0.0106
2297.00,0.0107
2296.00,0.0107
2295.00,0.0107
2294.00,0.0108
2293.00,0.0109
2292.00,0.0110
2291.00,0.0111
2290.00,0.0112
2289.00,0.0114
2288.00,0.0115
2287.00,0.0115
2286.00,0.0116
2285.00,0.0115
2284.00,0.0115
2283.00,0.0113
2282.00,0.0112
2281.00,0.0111
2280.00,0.0111
2279.00,0.0111
2278.00,0.0111
2277.00,0.0110
2276.00,0.0110
2275.00,0.0108
2274.00,0.0107
2273.00,0.0105
2272.00,0.0104
2271.00,0.0104
2270.00,0.0104
2269.00,0.0103
2268.00,0.0102
2267.00,0.0101
2266.00,0.0101
2265.00,0.0100
2264.00,0.0101
2263.00,0.0102
2262.00,0.0103
2261.00,0.0104
2260.00,0.0104
2259.00,0.0105
2258.00,0.0104
2257.00,0.0102
2256.00,0.0101
2255.00,0.0099
2254.00,0.0098
2253.00,0.0097
2252.00,0.0096
2251.00,0.0095
2250.00,0.0094
2249.00,0.0095
2248.00,0.0097
2247.00,0.0099
2246.00,0.0101
2245.00,0.0102
2244.00,0.0102
2243.00,0.0103
2242.00,0.0103
2241.00,0.0102
2240.00,0.0101
2239.00,0.0100
2238.00,0.0100
2237.00,0.0101
2236.00,0.0101
2235.00,0.0102
2234.00,0.0103
2233.00,0.0103
2232.00,0.0103
2231.00,0.0101
2230.00,0.0099
2229.00,0.0098
2228.00,0.0097
2227.00,0.0097
2226.00,0.0096
2225.00,0.0096
2224.00,0.0096
2223.00,0.0097
2222.00,0.0098
2221.00,0.0098
2220.00,0.0098
2219.00,0.0096
2218.00,0.0095
2217.00,0.0095
2216.00,0.0094
2215.00,0.0094
2214.00,0.0093
2213.00,0.0094
2212.00,0.0095
2211.00,0.0096
2210.00,0.0095
2209.00,0.0094
2208.00,0.0094
2207.00,0.0096
2206.00,0.0097
2205.00,0.0099
2204.00,0.0100
2203.00,0.0099
2202.00,0.0097
2201.00,0.0095
2200.00,0.0096
2199.00,0.0098
2198.00,0.0100
2197.00,0.0102
2196.00,0.0102
2195.00,0.0101
2194.00,0.0098
2193.00,0.0097
2192.00,0.0099
2191.00,0.0102
2190.00,0.0104
2189.00,0.0105
2188.00,0.0103
2187.00,0.0101
2186.00,0.0098
2185.00,0.0097
2184.00,0.0097
2183.00,0.0095
2182.00,0.0093
2181.00,0.0091
2180.00,0.0092
2179.00,0.0093
2178.00,0.0094
2177.00,0.0093
2176.00,0.0091
2175.00,0.0088
2174.00,0.0086
2173.00,0.0086
2172.00,0.0087
2171.00,0.0090
2170.00,0.0093
2169.00,0.0097
2168.00,0.0102
2167.00,0.0106
2166.00,0.0109
2165.00,0.0110
2164.00,0.0113
2163.00,0.0117
2162.00,0.0119
2161.00,0.0114
2160.00,0.0098
2159.00,0.0073
2158.00,0.0050
2157.00,0.0038
2156.00,0.0037
2155.00,0.0042
2154.00,0.0048
2153.00,0.0052
2152.00,0.0057
2151.00,0.0061
2150.00,0.0064
2149.00,0.0066
2148.00,0.0067
2147.00,0.0067
2146.00,0.0067
2145.00,0.0068
2144.00,0.0068
2143.00,0.0069
2142.00,0.0070
2141.00,0.0071
2140.00,0.0072
2139.00,0.0072
2138.00,0.0072
2137.00,0.0071
2136.00,0.0070
2135.00,0.0068
2134.00,0.0066
2133.00,0.0067
2132.00,0.0070
2131.00,0.0073
2130.00,0.0077
2129.00,0.0079
2128.00,0.0081
2127.00,0.0083
2126.00,0.0086
2125.00,0.0088
2124.00,0.0090
2123.00,0.0092
2122.00,0.0093
2121.00,0.0095
2120.00,0.0096
2119.00,0.0097
2118.00,0.0099
2117.00,0.0102
2116.00,0.0105
2115.00,0.0107
2114.00,0.0108
2113.00,0.0108
2112.00,0.0108
2111.00,0.0107
2110.00,0.0107
2109.00,0.0107
2108.00,0.0107
2107.00,0.0108
2106.00,0.0108
2105.00,0.0108
2104.00,0.0108
2103.00,0.0108
2102.00,0.0108
2101.00,0.0109
2100.00,0.0109
2099.00,0.0108
2098.00,0.0106
2097.00,0.0104
2096.00,0.0101
2095.00,0.0099
2094.00,0.0098
2093.00,0.0099
2092.00,0.0100
2091.00,0.0102
2090.00,0.0103
2089.00,0.0104
2088.00,0.0104
2087.00,0.0105
2086.00,0.0105
2085.00,0.0105
2084.00,0.0105
2083.00,0.0105
2082.00,0.0106
2081.00,0.0108
2080.00,0.0110
2079.00,0.0112
2078.00,0.0113
2077.00,0.0112
2076.00,0.0111
2075.00,0.0110
2074.00,0.0108
2073.00,0.0107
2072.00,0.0105
2071.00,0.0103
2070.00,0.0103
2069.00,0.0103
2068.00,0.0104
2067.00,0.0105
2066.00,0.0104
2065.00,0.0103
2064.00,0.0103
2063.00,0.0104
2062.00,0.0104
2061.00,0.0105
2060.00,0.0104
2059.00,0.0103
2058.00,0.0101
2057.00,0.0100
2056.00,0.0100
2055.00,0.0100
2054.00,0.0101
2053.00,0.0106
2052.00,0.0112
2051.00,0.0118
2050.00,0.0120
2049.00,0.0117
2048.00,0.0113
2047.00,0.0109
2046.00,0.0107
2045.00,0.0106
2044.00,0.0105
2043.00,0.0104
2042.00,0.0103
2041.00,0.0103
2040.00,0.0104
2039.00,0.0103
2038.00,0.0103
2037.00,0.0103
2036.00,0.0102
2035.00,0.0101
2034.00,0.0098
2033.00,0.0093
2032.00,0.0088
2031.00,0.0084
2030.00,0.0081
2029.00,0.0079
2028.00,0.0078
2027.00,0.0079
2026.00,0.0081
2025.00,0.0083
2024.00,0.0085
2023.00,0.0087
2022.00,0.0088
2021.00,0.0086
2020.00,0.0082
2019.00,0.0077
2018.00,0.0074
2017.00,0.0073
2016.00,0.0075
2015.00,0.0077
2014.00,0.0079
2013.00,0.0081
2012.00,0.0082
2011.00,0.0083
2010.00,0.0084
2009.00,0.0084
2008.00,0.0082
2007.00,0.0076
2006.00,0.0070
2005.00,0.0068
2004.00,0.0070
2003.00,0.0074
2002.00,0.0078
2001.00,0.0081
2000.00,0.0084
1999.00,0.0086
1998.00,0.0087
1997.00,0.0087
1996.00,0.0088
1995.00,0.0088
1994.00,0.0088
1993.00,0.0089
1992.00,0.0090
1991.00,0.0093
1990.00,0.0094
1989.00,0.0094
1988.00,0.0092
1987.00,0.0092
1986.00,0.0092
1985.00,0.0094
1984.00,0.0096
1983.00,0.0099
1982.00,0.0104
1981.00,0.0108
1980.00,0.0111
1979.00,0.0108
1978.00,0.0100
1977.00,0.0090
1976.00,0.0082
1975.00,0.0078
1974.00,0.0075
1973.00,0.0072
1972.00,0.0070
1971.00,0.0068
1970.00,0.0067
1969.00,0.0067
1968.00,0.0068
1967.00,0.0069
1966.00,0.0070
1965.00,0.0070
1964.00,0.0070
1963.00,0.0070
1962.00,0.0069
1961.00,0.0068
1960.00,0.0066
1959.00,0.0064
1958.00,0.0064
1957.00,0.0065
1956.00,0.0067
1955.00,0.0070
1954.00,0.0073
1953.00,0.0074
1952.00,0.0075
1951.00,0.0076
1950.00,0.0077
1949.00,0.0077
1948.00,0.0077
1947.00,0.0076
1946.00,0.0074
1945.00,0.0074
1944.00,0.0073
1943.00,0.0073
1942.00,0.0073
1941.00,0.0073
1940.00,0.0074
1939.00,0.0074
1938.00,0.0074
1937.00,0.0074
1936.00,0.0074
1935.00,0.0075
1934.00,0.0076
1933.00,0.0077
1932.00,0.0076
1931.00,0.0076
1930.00,0.0075
1929.00,0.0075
1928.00,0.0076
1927.00,0.0077
1926.00,0.0078
1925.00,0.0078
1924.00,0.0079
1923.00,0.0080
1922.00,0.0080
1921.00,0.0081
1920.00,0.0081
1919.00,0.0082
1918.00,0.0081
1917.00,0.0080
1916.00,0.0080
1915.00,0.0080
1914.00,0.0079
1913.00,0.0080
1912.00,0.0081
1911.00,0.0082
1910.00,0.0083
1909.00,0.0084
1908.00,0.0083
1907.00,0.0081
1906.00,0.0080
1905.00,0.0080
1904.00,0.0080
1903.00,0.0080
1902.00,0.0079
1901.00,0.0079
1900.00,0.0079
1899.00,0.0078
1898.00,0.0078
1897.00,0.0079
1896.00,0.0080
1895.00,0.0081
1894.00,0.0081
1893.00,0.0081
1892.00,0.0081
1891.00,0.0080
1890.00,0.0080
1889.00,0.0080
1888.00,0.0080
1887.00,0.0080
1886.00,0.0081
1885.00,0.0080
1884.00,0.0080
1883.00,0.0080
1882.00,0.0080
1881.00,0.0081
1880.00,0.0082
1879.00,0.0081
1878.00,0.0080
1877.00,0.0080
1876.00,0.0080
1875.00,0.0080
1874.00,0.0081
1873.00,0.0082
1872.00,0.0082
1871.00,0.0082
1870.00,0.0082
1869.00,0.0081
1868.00,0.0081
1867.00,0.0081
1866.00,0.0081
1865.00,0.0081
1864.00,0.0081
1863.00,0.0082
1862.00,0.0083
1861.00,0.0083
1860.00,0.0084
1859.00,0.0083
1858.00,0.0083
1857.00,0.0083
1856.00,0.0083
1855.00,0.0082
1854.00,0.0082
1853.00,0.0081
1852.00,0.0081
1851.00,0.0081
1850.00,0.0082
1849.00,0.0082
1848.00,0.0083
1847.00,0.0085
1846.00,0.0086
1845.00,0.0086
1844.00,0.0086
1843.00,0.0084
1842.00,0.0083
1841.00,0.0083
1840.00,0.0083
1839.00,0.0084
1838.00,0.0084
1837.00,0.0084
1836.00,0.0085
1835.00,0.0086
1834.00,0.0086
1833.00,0.0087
1832.00,0.0087
1831.00,0.0087
1830.00,0.0087
1829.00,0.0086
1828.00,0.0087
1827.00,0.0088
1826.00,0.0089
1825.00,0.0089
1824.00,0.0089
1823.00,0.0088
1822.00,0.0088
1821.00,0.0087
1820.00,0.0087
1819.00,0.0086
1818.00,0.0085
1817.00,0.0085
1816.00,0.0085
1815.00,0.0086
1814.00,0.0087
1813.00,0.0088
1812.00,0.0090
1811.00,0.0091
1810.00,0.0092
1809.00,0.0092
1808.00,0.0093
1807.00,0.0093
1806.00,0.0093
1805.00,0.0093
1804.00,0.0094
1803.00,0.0094
1802.00,0.0095
1801.00,0.0095
1800.00,0.0096
1799.00,0.0097
1798.00,0.0098
1797.00,0.0099
1796.00,0.0100
1795.00,0.0101
1794.00,0.0102
1793.00,0.0101
1792.00,0.0100
1791.00,0.0099
1790.00,0.0099
1789.00,0.0100
1788.00,0.0101
1787.00,0.0102
1786.00,0.0102
1785.00,0.0102
1784.00,0.0102
1783.00,0.0102
1782.00,0.0102
1781.00,0.0102
1780.00,0.0103
1779.00,0.0103
1778.00,0.0104
1777.00,0.0104
1776.00,0.0104
1775.00,0.0106
1774.00,0.0107
1773.00,0.0108
1772.00,0.0108
1771.00,0.0108
1770.00,0.0108
1769.00,0.0108
1768.00,0.0109
1767.00,0.0110
1766.00,0.0111
1765.00,0.0112
1764.00,0.0113
1763.00,0.0113
1762.00,0.0113
1761.00,0.0114
1760.00,0.0115
1759.00,0.0116
1758.00,0.0117
1757.00,0.0117
1756.00,0.0118
1755.00,0.0119
1754.00,0.0121
1753.00,0.0123
1752.00,0.0124
1751.00,0.0124
1750.00,0.0125
1749.00,0.0125
1748.00,0.0127
1747.00,0.0128
1746.00,0.0129
1745.00,0.0130
1744.00,0.0132
1743.00,0.0134
1742.00,0.0135
1741.00,0.0136
1740.00,0.0137
1739.00,0.0136
1738.00,0.0137
1737.00,0.0140
1736.00,0.0143
1735.00,0.0145
1734.00,0.0146
1733.00,0.0146
1732.00,0.0147
1731.00,0.0149
1730.00,0.0151
1729.00,0.0152
1728.00,0.0153
1727.00,0.0154
1726.00,0.0155
1725.00,0.0157
1724.00,0.0158
1723.00,0.0160
1722.00,0.0162
1721.00,0.0165
1720.00,0.0168
1719.00,0.0170
1718.00,0.0174
1717.00,0.0177
1716.00,0.0181
1715.00,0.0184
1714.00,0.0185
1713.00,0.0187
1712.00,0.0189
1711.00,0.0191
1710.00,0.0193
1709.00,0.0196
1708.00,0.0199
1707.00,0.0204
1706.00,0.0208
1705.00,0.0213
1704.00,0.0218
1703.00,0.0223
1702.00,0.0227
1701.00,0.0230
1700.00,0.0235
1699.00,0.0240
1698.00,0.0246
1697.00,0.0252
1696.00,0.0257
1695.00,0.0263
1694.00,0.0268
1693.00,0.0274
1692.00,0.0279
1691.00,0.0284
1690.00,0.0290
1689.00,0.0297
1688.00,0.0303
1687.00,0.0310
1686.00,0.0316
1685.00,0.0324
1684.00,0.0337
1683.00,0.0348
1682.00,0.0356
1681.00,0.0363
1680.00,0.0370
1679.00,0.0377
1678.00,0.0384
1677.00,0.0391
1676.00,0.0400
1675.00,0.0410
1674.00,0.0420
1673.00,0.0429
1672.00,0.0437
1671.00,0.0446
1670.00,0.0456
1669.00,0.0468
1668.00,0.0479
1667.00,0.0487
1666.00,0.0494
1665.00,0.0501
1664.00,0.0509
1663.00,0.0519
1662.00,0.0530
1661.00,0.0540
1660.00,0.0549
1659.00,0.0557
1658.00,0.0564
1657.00,0.0570
1656.00,0.0575
1655.00,0.0580
1654.00,0.0588
1653.00,0.0603
1652.00,0.0617
1651.00,0.0624
1650.00,0.0628
1649.00,0.0630
1648.00,0.0634
1647.00,0.0642
1646.00,0.0651
1645.00,0.0657
1644.00,0.0660
1643.00,0.0661
1642.00,0.0662
1641.00,0.0662
1640.00,0.0663
1639.00,0.0664
1638.00,0.0664
1637.00,0.0663
1636.00,0.0664
1635.00,0.0665
1634.00,0.0664
1633.00,0.0661
1632.00,0.0657
1631.00,0.0651
1630.00,0.0645
1629.00,0.0639
1628.00,0.0632
1627.00,0.0626
1626.00,0.0620
1625.00,0.0612
1624.00,0.0604
1623.00,0.0595
1622.00,0.0586
1621.00,0.0577
1620.00,0.0568
1619.00,0.0560
1618.00,0.0549
1617.00,0.0538
1616.00,0.0527
1615.00,0.0516
1614.00,0.0507
1613.00,0.0498
1612.00,0.0488
1611.00,0.0478
1610.00,0.0469
1609.00,0.0460
1608.00,0.0451
1607.00,0.0442
1606.00,0.0433
1605.00,0.0425
1604.00,0.0417
1603.00,0.0410
1602.00,0.0402
1601.00,0.0395
1600.00,0.0387
1599.00,0.0380
1598.00,0.0374
1597.00,0.0367
1596.00,0.0361
1595.00,0.0356
1594.00,0.0350
1593.00,0.0345
1592.00,0.0340
1591.00,0.0335
1590.00,0.0331
1589.00,0.0327
1588.00,0.0322
1587.00,0.0319
1586.00,0.0315
1585.00,0.0311
1584.00,0.0308
1583.00,0.0305
1582.00,0.0302
1581.00,0.0299
1580.00,0.0298
1579.00,0.0296
1578.00,0.0294
1577.00,0.0291
1576.00,0.0288
1575.00,0.0285
1574.00,0.0283
1573.00,0.0282
1572.00,0.0281
1571.00,0.0279
1570.00,0.0277
1569.00,0.0275
1568.00,0.0273
1567.00,0.0271
1566.00,0.0270
1565.00,0.0269
1564.00,0.0268
1563.00,0.0268
1562.00,0.0268
1561.00,0.0268
1560.00,0.0266
1559.00,0.0264
1558.00,0.0262
1557.00,0.0260
1556.00,0.0260
1555.00,0.0259
1554.00,0.0258
1553.00,0.0257
1552.00,0.0256
1551.00,0.0255
1550.00,0.0254
1549.00,0.0254
1548.00,0.0253
1547.00,0.0252
1546.00,0.0252
1545.00,0.0251
1544.00,0.0251
1543.00,0.0251
1542.00,0.0251
1541.00,0.0249
1540.00,0.0246
1539.00,0.0242
1538.00,0.0239
1537.00,0.0239
1536.00,0.0238
1535.00,0.0238
1534.00,0.0236
1533.00,0.0234
1532.00,0.0232
1531.00,0.0231
1530.00,0.0230
1529.00,0.0229
1528.00,0.0228
1527.00,0.0227
1526.00,0.0226
1525.00,0.0226
1524.00,0.0226
1523.00,0.0226
1522.00,0.0225
1521.00,0.0223
1520.00,0.0222
1519.00,0.0220
1518.00,0.0219
1517.00,0.0218
1516.00,0.0217
1515.00,0.0217
1514.00,0.0216
1513.00,0.0216
1512.00,0.0215
1511.00,0.0215
1510.00,0.0215
1509.00,0.0216
1508.00,0.0216
1507.00,0.0216
1506.00,0.0214
1505.00,0.0211
1504.00,0.0210
1503.00,0.0209
1502.00,0.0209
1501.00,0.0210
1500.00,0.0210
1499.00,0.0210
1498.00,0.0210
1497.00,0.0209
1496.00,0.0209
1495.00,0.0208
1494.00,0.0209
1493.00,0.0211
1492.00,0.0212
1491.00,0.0213
1490.00,0.0214
1489.00,0.0216
1488.00,0.0217
1487.00,0.0218
1486.00,0.0218
1485.00,0.0219
1484.00,0.0220
1483.00,0.0221
1482.00,0.0223
1481.00,0.0225
1480.00,0.0227
1479.00,0.0229
1478.00,0.0231
1477.00,0.0234
1476.00,0.0236
1475.00,0.0238
1474.00,0.0241
1473.00,0.0243
1472.00,0.0244
1471.00,0.0245
1470.00,0.0245
1469.00,0.0246
1468.00,0.0247
1467.00,0.0248
1466.00,0.0249
1465.00,0.0250
1464.00,0.0251
1463.00,0.0252
1462.00,0.0253
1461.00,0.0254
1460.00,0.0255
1459.00,0.0256
1458.00,0.0258
1457.00,0.0261
1456.00,0.0262
1455.00,0.0262
1454.00,0.0263
1453.00,0.0263
1452.00,0.0263
1451.00,0.0263
1450.00,0.0263
1449.00,0.0263
1448.00,0.0263
1447.00,0.0263
1446.00,0.0264
1445.00,0.0265
1444.00,0.0266
1443.00,0.0266
1442.00,0.0267
1441.00,0.0269
1440.00,0.0270
1439.00,0.0272
1438.00,0.0273
1437.00,0.0274
1436.00,0.0275
1435.00,0.0276
1434.00,0.0278
1433.00,0.0279
1432.00,0.0280
1431.00,0.0280
1430.00,0.0281
1429.00,0.0282
1428.00,0.0282
1427.00,0.0283
1426.00,0.0284
1425.00,0.0285
1424.00,0.0286
1423.00,0.0287
1422.00,0.0288
1421.00,0.0289
1420.00,0.0290
1419.00,0.0290
1418.00,0.0291
1417.00,0.0291
1416.00,0.0291
1415.00,0.0291
1414.00,0.0291
1413.00,0.0291
1412.00,0.0291
1411.00,0.0291
1410.00,0.0291
1409.00,0.0291
1408.00,0.0291
1407.00,0.0291
1406.00,0.0291
1405.00,0.0291
1404.00,0.0291
1403.00,0.0290
1402.00,0.0289
1401.00,0.0289
1400.00,0.0288
1399.00,0.0287
1398.00,0.0287
1397.00,0.0286
1396.00,0.0286
1395.00,0.0286
1394.00,0.0285
1393.00,0.0286
1392.00,0.0286
1391.00,0.0287
1390.00,0.0288
1389.00,0.0290
1388.00,0.0293
1387.00,0.0297
1386.00,0.0301
1385.00,0.0304
1384.00,0.0307
1383.00,0.0310
1382.00,0.0313
1381.00,0.0316
1380.00,0.0319
1379.00,0.0320
1378.00,0.0322
1377.00,0.0323
1376.00,0.0324
1375.00,0.0324
1374.00,0.0325
1373.00,0.0325
1372.00,0.0324
1371.00,0.0322
1370.00,0.0321
1369.00,0.0320
1368.00,0.0318
1367.00,0.0317
1366.00,0.0315
1365.00,0.0314
1364.00,0.0312
1363.00,0.0312
1362.00,0.0312
1361.00,0.0311
1360.00,0.0311
1359.00,0.0310
1358.00,0.0310
1357.00,0.0310
1356.00,0.0309
1355.00,0.0309
1354.00,0.0309
1353.00,0.0308
1352.00,0.0307
1351.00,0.0305
1350.00,0.0303
1349.00,0.0301
1348.00,0.0299
1347.00,0.0297
1346.00,0.0295
1345.00,0.0292
1344.00,0.0290
1343.00,0.0288
1342.00,0.0287
1341.00,0.0286
1340.00,0.0285
1339.00,0.0284
1338.00,0.0284
1337.00,0.0283
1336.00,0.0282
1335.00,0.0281
1334.00,0.0281
1333.00,0.0281
1332.00,0.0280
1331.00,0.0280
1330.00,0.0281
1329.00,0.0281
1328.00,0.0281
1327.00,0.0281
1326.00,0.0282
1325.00,0.0282
1324.00,0.0283
1323.00,0.0283
1322.00,0.0284
1321.00,0.0285
1320.00,0.0286
1319.00,0.0286
1318.00,0.0287
1317.00,0.0288
1316.00,0.0289
1315.00,0.0289
1314.00,0.0290
1313.00,0.0291
1312.00,0.0292
1311.00,0.0293
1310.00,0.0294
1309.00,0.0295
1308.00,0.0296
1307.00,0.0298
1306.00,0.0300
1305.00,0.0302
1304.00,0.0305
1303.00,0.0307
1302.00,0.0311
1301.00,0.0314
1300.00,0.0318
1299.00,0.0321
1298.00,0.0326
1297.00,0.0332
1296.00,0.0338
1295.00,0.0344
1294.00,0.0350
1293.00,0.0357
1292.00,0.0365
1291.00,0.0373
1290.00,0.0381
1289.00,0.0390
1288.00,0.0400
1287.00,0.0409
1286.00,0.0420
1285.00,0.0431
1284.00,0.0442
1283.00,0.0454
1282.00,0.0466
1281.00,0.0479
1280.00,0.0492
1279.00,0.0505
1278.00,0.0519
1277.00,0.0533
1276.00,0.0547
1275.00,0.0561
1274.00,0.0576
1273.00,0.0591
1272.00,0.0606
1271.00,0.0621
1270.00,0.0635
1269.00,0.0648
1268.00,0.0661
1267.00,0.0672
1266.00,0.0683
1265.00,0.0693
1264.00,0.0703
1263.00,0.0712
1262.00,0.0720
1261.00,0.0728
1260.00,0.0735
1259.00,0.0742
1258.00,0.0747
1257.00,0.0752
1256.00,0.0757
1255.00,0.0760
1254.00,0.0764
1253.00,0.0767
1252.00,0.0770
1251.00,0.0772
1250.00,0.0774
1249.00,0.0776
1248.00,0.0777
1247.00,0.0779
1246.00,0.0781
1245.00,0.0783
1244.00,0.0786
1243.00,0.0788
1242.00,0.0791
1241.00,0.0795
1240.00,0.0798
1239.00,0.0802
1238.00,0.0807
1237.00,0.0811
1236.00,0.0815
1235.00,0.0819
1234.00,0.0822
1233.00,0.0825
1232.00,0.0828
1231.00,0.0830
1230.00,0.0831
1229.00,0.0832
1228.00,0.0833
1227.00,0.0832
1226.00,0.0831
1225.00,0.0829
1224.00,0.0827
1223.00,0.0823
1222.00,0.0819
1221.00,0.0815
1220.00,0.0810
1219.00,0.0804
1218.00,0.0797
1217.00,0.0790
1216.00,0.0782
1215.00,0.0774
1214.00,0.0765
1213.00,0.0755
1212.00,0.0745
1211.00,0.0735
1210.00,0.0725
1209.00,0.0714
1208.00,0.0703
1207.00,0.0692
1206.00,0.0682
1205.00,0.0671
1204.00,0.0660
1203.00,0.0649
1202.00,0.0640
1201.00,0.0631
1200.00,0.0624
1199.00,0.0619
1198.00,0.0615
1197.00,0.0613
1196.00,0.0612
1195.00,0.0611
1194.00,0.0611
1193.00,0.0610
1192.00,0.0609
1191.00,0.0607
1190.00,0.0603
1189.00,0.0598
1188.00,0.0592
1187.00,0.0586
1186.00,0.0581
1185.00,0.0576
1184.00,0.0571
1183.00,0.0567
1182.00,0.0565
1181.00,0.0563
1180.00,0.0563
1179.00,0.0565
1178.00,0.0568
1177.00,0.0571
1176.00,0.0576
1175.00,0.0581
1174.00,0.0587
1173.00,0.0595
1172.00,0.0604
1171.00,0.0613
1170.00,0.0624
1169.00,0.0636
1168.00,0.0649
1167.00,0.0662
1166.00,0.0676
1165.00,0.0690
1164.00,0.0703
1163.00,0.0714
1162.00,0.0725
1161.00,0.0733
1160.00,0.0740
1159.00,0.0745
1158.00,0.0748
1157.00,0.0750
1156.00,0.0750
1155.00,0.0749
1154.00,0.0746
1153.00,0.0742
1152.00,0.0737
1151.00,0.0730
1150.00,0.0723
1149.00,0.0716
1148.00,0.0708
1147.00,0.0700
1146.00,0.0693
1145.00,0.0686
1144.00,0.0680
1143.00,0.0676
1142.00,0.0673
1141.00,0.0672
1140.00,0.0673
1139.00,0.0676
1138.00,0.0682
1137.00,0.0691
1136.00,0.0702
1135.00,0.0715
1134.00,0.0731
1133.00,0.0748
1132.00,0.0766
1131.00,0.0783
1130.00,0.0798
1129.00,0.0812
1128.00,0.0823
1127.00,0.0831
1126.00,0.0836
1125.00,0.0838
1124.00,0.0837
1123.00,0.0835
1122.00,0.0831
1121.00,0.0828
1120.00,0.0825
1119.00,0.0822
1118.00,0.0820
1117.00,0.0819
1116.00,0.0817
1115.00,0.0815
1114.00,0.0814
1113.00,0.0813
1112.00,0.0812
1111.00,0.0811
1110.00,0.0810
1109.00,0.0809
1108.00,0.0810
1107.00,0.0812
1106.00,0.0816
1105.00,0.0821
1104.00,0.0828
1103.00,0.0836
1102.00,0.0845
1101.00,0.0855
1100.00,0.0866
1099.00,0.0878
1098.00,0.0890
1097.00,0.0901
1096.00,0.0911
1095.00,0.0919
1094.00,0.0926
1093.00,0.0932
1092.00,0.0939
1091.00,0.0945
1090.00,0.0953
1089.00,0.0961
1088.00,0.0970
1087.00,0.0981
1086.00,0.0992
1085.00,0.1005
1084.00,0.1020
1083.00,0.1035
1082.00,0.1052
1081.00,0.1070
1080.00,0.1090
1079.00,0.1112
1078.00,0.1134
1077.00,0.1155
1076.00,0.1177
1075.00,0.1197
1074.00,0.1217
1073.00,0.1236
1072.00,0.1254
1071.00,0.1270
1070.00,0.1284
1069.00,0.1295
1068.00,0.1302
1067.00,0.1304
1066.00,0.1301
1065.00,0.1292
1064.00,0.1277
1063.00,0.1260
1062.00,0.1241
1061.00,0.1223
1060.00,0.1206
1059.00,0.1193
1058.00,0.1183
1057.00,0.1176
1056.00,0.1172
1055.00,0.1171
1054.00,0.1172
1053.00,0.1175
1052.00,0.1180
1051.00,0.1185
1050.00,0.1192
1049.00,0.1201
1048.00,0.1212
1047.00,0.1225
1046.00,0.1239
1045.00,0.1253
1044.00,0.1266
1043.00,0.1277
1042.00,0.1284
1041.00,0.1288
1040.00,0.1286
1039.00,0.1282
1038.00,0.1274
1037.00,0.1266
1036.00,0.1258
1035.00,0.1252
1034.00,0.1249
1033.00,0.1248
1032.00,0.1248
1031.00,0.1248
1030.00,0.1247
1029.00,0.1243
1028.00,0.1235
1027.00,0.1222
1026.00,0.1205
1025.00,0.1185
1024.00,0.1161
1023.00,0.1133
1022.00,0.1105
1021.00,0.1075
1020.00,0.1045
1019.00,0.1016
1018.00,0.0989
1017.00,0.0964
1016.00,0.0942
1015.00,0.0923
1014.00,0.0907
1013.00,0.0893
1012.00,0.0882
1011.00,0.0875
1010.00,0.0870
1009.00,0.0868
1008.00,0.0868
1007.00,0.0868
1006.00,0.0868
1005.00,0.0867
1004.00,0.0862
1003.00,0.0853
1002.00,0.0841
1001.00,0.0825
1000.00,0.0806
999.00,0.0785
998.00,0.0764
997.00,0.0745
996.00,0.0728
995.00,0.0715
994.00,0.0705
993.00,0.0697
992.00,0.0691
991.00,0.0686
990.00,0.0681
989.00,0.0675
988.00,0.0668
987.00,0.0660
986.00,0.0652
985.00,0.0643
984.00,0.0634
983.00,0.0626
982.00,0.0620
981.00,0.0615
980.00,0.0612
979.00,0.0611
978.00,0.0611
977.00,0.0612
976.00,0.0614
975.00,0.0618
974.00,0.0622
973.00,0.0627
972.00,0.0632
971.00,0.0635
970.00,0.0636
969.00,0.0633
968.00,0.0625
967.00,0.0613
966.00,0.0597
965.00,0.0579
964.00,0.0560
963.00,0.0543
962.00,0.0528
961.00,0.0515
960.00,0.0504
959.00,0.0496
958.00,0.0491
957.00,0.0489
956.00,0.0489
955.00,0.0490
954.00,0.0493
953.00,0.0497
952.00,0.0502
951.00,0.0509
950.00,0.0517
949.00,0.0526
948.00,0.0535
947.00,0.0545
946.00,0.0556
945.00,0.0570
944.00,0.0585
943.00,0.0602
942.00,0.0622
941.00,0.0645
940.00,0.0671
939.00,0.0701
938.00,0.0734
937.00,0.0767
936.00,0.0800
935.00,0.0832
934.00,0.0861
933.00,0.0887
932.00,0.0909
931.00,0.0928
930.00,0.0944
929.00,0.0957
928.00,0.0967
927.00,0.0975
926.00,0.0980
925.00,0.0983
924.00,0.0983
923.00,0.0982
922.00,0.0979
921.00,0.0975
920.00,0.0970
919.00,0.0964
918.00,0.0957
917.00,0.0949
916.00,0.0939
915.00,0.0927
914.00,0.0915
913.00,0.0902
912.00,0.0889
911.00,0.0877
910.00,0.0863
909.00,0.0849
908.00,0.0835
907.00,0.0823
906.00,0.0812
905.00,0.0803
904.00,0.0796
903.00,0.0788
902.00,0.0782
901.00,0.0777
900.00,0.0773
899.00,0.0770
898.00,0.0767
897.00,0.0765
896.00,0.0763
895.00,0.0762
894.00,0.0761
893.00,0.0760
892.00,0.0759
891.00,0.0757
890.00,0.0755
889.00,0.0752
888.00,0.0747
887.00,0.0739
886.00,0.0729
885.00,0.0717
884.00,0.0703
883.00,0.0688
882.00,0.0673
881.00,0.0661
880.00,0.0651
879.00,0.0644
878.00,0.0642
877.00,0.0643
876.00,0.0646
875.00,0.0650
874.00,0.0652
873.00,0.0653
872.00,0.0650
871.00,0.0646
870.00,0.0642
869.00,0.0638
868.00,0.0635
867.00,0.0634
866.00,0.0634
865.00,0.0637
864.00,0.0642
863.00,0.0648
862.00,0.0656
861.00,0.0666
860.00,0.0678
859.00,0.0692
858.00,0.0709
857.00,0.0727
856.00,0.0747
855.00,0.0768
854.00,0.0790
853.00,0.0812
852.00,0.0833
851.00,0.0852
850.00,0.0871
849.00,0.0888
848.00,0.0902
847.00,0.0911
846.00,0.0916
845.00,0.0915
844.00,0.0908
843.00,0.0897
842.00,0.0883
841.00,0.0866
840.00,0.0847
839.00,0.0827
838.00,0.0806
837.00,0.0786
836.00,0.0767
835.00,0.0751
834.00,0.0737
833.00,0.0725
832.00,0.0713
831.00,0.0703
830.00,0.0693
829.00,0.0685
828.00,0.0678
827.00,0.0672
826.00,0.0669
825.00,0.0667
824.00,0.0666
823.00,0.0666
822.00,0.0665
821.00,0.0664
820.00,0.0664
819.00,0.0664
818.00,0.0665
817.00,0.0667
816.00,0.0669
815.00,0.0673
814.00,0.0677
813.00,0.0682
812.00,0.0687
811.00,0.0693
810.00,0.0701
809.00,0.0709
808.00,0.0718
807.00,0.0726
806.00,0.0733
805.00,0.0739
804.00,0.0745
803.00,0.0749
802.00,0.0753
801.00,0.0756
800.00,0.0758
799.00,0.0758
798.00,0.0758
797.00,0.0757
796.00,0.0756
795.00,0.0754
794.00,0.0753
793.00,0.0750
792.00,0.0748
791.00,0.0745
790.00,0.0744
789.00,0.0743
788.00,0.0743
787.00,0.0743
786.00,0.0745
785.00,0.0748
784.00,0.0751
783.00,0.0755
782.00,0.0760
781.00,0.0766
780.00,0.0772
779.00,0.0779
778.00,0.0788
777.00,0.0797
776.00,0.0805
775.00,0.0812
774.00,0.0816
773.00,0.0819
772.00,0.0821
771.00,0.0820
770.00,0.0818
769.00,0.0815
768.00,0.0812
767.00,0.0810
766.00,0.0809
765.00,0.0809
764.00,0.0809
763.00,0.0810
762.00,0.0812
761.00,0.0815
760.00,0.0819
759.00,0.0824
758.00,0.0828
757.00,0.0833
756.00,0.0839
755.00,0.0845
754.00,0.0854
753.00,0.0864
752.00,0.0877
751.00,0.0891
750.00,0.0907
749.00,0.0924
748.00,0.0939
747.00,0.0954
746.00,0.0968
745.00,0.0981
744.00,0.0993
743.00,0.1003
742.00,0.1013
741.00,0.1023
740.00,0.1032
739.00,0.1041
738.00,0.1049
737.00,0.1056
736.00,0.1062
735.00,0.1066
734.00,0.1071
733.00,0.1075
732.00,0.1079
731.00,0.1083
730.00,0.1087
729.00,0.1092
728.00,0.1097
727.00,0.1103
726.00,0.1108
725.00,0.1111
724.00,0.1113
723.00,0.1114
722.00,0.1115
721.00,0.1116
720.00,0.1115
719.00,0.1114
718.00,0.1113
717.00,0.1113
716.00,0.1114
715.00,0.1119
714.00,0.1126
713.00,0.1134
712.00,0.1144
711.00,0.1154
710.00,0.1165
709.00,0.1178
708.00,0.1191
707.00,0.1204
706.00,0.1216
705.00,0.1226
704.00,0.1234
703.00,0.1240
702.00,0.1245
701.00,0.1248
700.00,0.1247
699.00,0.1244
698.00,0.1238
697.00,0.1230
696.00,0.1222
695.00,0.1213
694.00,0.1205
693.00,0.1198
692.00,0.1190
691.00,0.1183
690.00,0.1176
689.00,0.1169
688.00,0.1164
687.00,0.1159
686.00,0.1156
685.00,0.1154
684.00,0.1152
683.00,0.1149
682.00,0.1148
681.00,0.1146
680.00,0.1145
679.00,0.1145
678.00,0.1147
677.00,0.1150
676.00,0.1154
675.00,0.1159
674.00,0.1165
673.00,0.1171
672.00,0.1174
671.00,0.1173
670.00,0.1172
669.00,0.1171
668.00,0.1176
667.00,0.1186
666.00,0.1193
665.00,0.1196
664.00,0.1196
663.00,0.1198
662.00,0.1200
661.00,0.1202
660.00,0.1205
659.00,0.1208
658.00,0.1210
657.00,0.1211
656.00,0.1212
655.00,0.1212
654.00,0.1213
653.00,0.1216
652.00,0.1219
651.00,0.1222
650.00,0.1224
649.00,0.1226
648.00,0.1228
647.00,0.1229
646.00,0.1229
645.00,0.1230
644.00,0.1232
643.00,0.1235
642.00,0.1239
641.00,0.1244
640.00,0.1248
639.00,0.1254
638.00,0.1261
637.00,0.1269
636.00,0.1277
635.00,0.1286
634.00,0.1294
633.00,0.1301
632.00,0.1307
631.00,0.1313
630.00,0.1322
629.00,0.1335
628.00,0.1350
627.00,0.1367
626.00,0.1386
625.00,0.1404
624.00,0.1421
623.00,0.1435
622.00,0.1449
621.00,0.1462
620.00,0.1474
619.00,0.1484
618.00,0.1494
617.00,0.1502
616.00,0.1509
615.00,0.1515
614.00,0.1520
613.00,0.1525
612.00,0.1529
611.00,0.1534
610.00,0.1540
609.00,0.1548
608.00,0.1557
607.00,0.1563
606.00,0.1567
605.00,0.1569
604.00,0.1568
603.00,0.1567
602.00,0.1566
601.00,0.1566
600.00,0.1568
599.00,0.1570
598.00,0.1574
597.00,0.1577
596.00,0.1580
595.00,0.1584
594.00,0.1589
593.00,0.1597
592.00,0.1606
591.00,0.1613
590.00,0.1620
589.00,0.1628
588.00,0.1637
587.00,0.1648
586.00,0.1661
585.00,0.1673
584.00,0.1684
583.00,0.1693
582.00,0.1703
581.00,0.1714
580.00,0.1727
579.00,0.1738
578.00,0.1746
577.00,0.1752
576.00,0.1758
575.00,0.1765
574.00,0.1770
573.00,0.1773
572.00,0.1774
571.00,0.1773
570.00,0.1773
569.00,0.1774
568.00,0.1778
567.00,0.1782
566.00,0.1786
565.00,0.1789
564.00,0.1792
563.00,0.1794
562.00,0.1796
561.00,0.1798
560.00,0.1798
559.00,0.1798
558.00,0.1799
557.00,0.1801
556.00,0.1803
555.00,0.1805
554.00,0.1806
553.00,0.1807
552.00,0.1809
551.00,0.1811
550.00,0.1812
549.00,0.1813
548.00,0.1815
547.00,0.1821
546.00,0.1829
545.00,0.1836
544.00,0.1840
543.00,0.1840
542.00,0.1840
541.00,0.1842
540.00,0.1844
539.00,0.1845
538.00,0.1844
537.00,0.1841
536.00,0.1839
535.00,0.1836
534.00,0.1833
533.00,0.1826
532.00,0.1818
531.00,0.1812
530.00,0.1809
529.00,0.1809
528.00,0.1809
527.00,0.1809
526.00,0.1809
525.00,0.1811
524.00,0.1814
523.00,0.1818
522.00,0.1821
521.00,0.1824
520.00,0.1825
519.00,0.1825
518.00,0.1824
517.00,0.1823
516.00,0.1823
515.00,0.1824
514.00,0.1824
513.00,0.1822
512.00,0.1818
511.00,0.1815
510.00,0.1814
509.00,0.1813
508.00,0.1813
507.00,0.1814
506.00,0.1815
505.00,0.1814
504.00,0.1811
503.00,0.1810
502.00,0.1815
501.00,0.1821
500.00,0.1826
499.00,0.1830
498.00,0.1834
497.00,0.1835
496.00,0.1833
495.00,0.1830
494.00,0.1828
493.00,0.1830
492.00,0.1834
491.00,0.1840
490.00,0.1844
489.00,0.1846
488.00,0.1845
487.00,0.1843
486.00,0.1843
485.00,0.1846
484.00,0.1849
483.00,0.1850
482.00,0.1851
481.00,0.1854
480.00,0.1860
479.00,0.1870
478.00,0.1878
477.00,0.1880
476.00,0.1876
475.00,0.1872
474.00,0.1870
473.00,0.1868
472.00,0.1864
471.00,0.1860
470.00,0.1859
469.00,0.1863
468.00,0.1870
467.00,0.1876
466.00,0.1879
465.00,0.1877
464.00,0.1873
463.00,0.1871
462.00,0.1874
461.00,0.1879
460.00,0.1883
459.00,0.1883
458.00,0.1881
457.00,0.1880
456.00,0.1880
455.00,0.1883
454.00,0.1886
453.00,0.1887
452.00,0.1888
451.00,0.1889
450.00,0.1894
