Created as New Dataset,Sample 008 By Administrator Date Monday, June 09 2025
cm-1,A
4000.00,0.0056
3999.00,0.0056
3998.00,0.0056
3997.00,0.0057
3996.00,0.0057
3995.00,0.0057
3994.00,0.0057
3993.00,0.0057
3992.00,0.0056
3991.00,0.0056
3990.00,0.0056
3989.00,0.0056
3988.00,0.0057
3987.00,0.0057
3986.00,0.0057
3985.00,0.0057
3984.00,0.0057
3983.00,0.0056
3982.00,0.0057
3981.00,0.0057
3980.00,0.0057
3979.00,0.0058
3978.00,0.0058
3977.00,0.0058
3976.00,0.0057
3975.00,0.0057
3974.00,0.0057
3973.00,0.0057
3972.00,0.0057
3971.00,0.0056
3970.00,0.0056
3969.00,0.0056
3968.00,0.0056
3967.00,0.0057
3966.00,0.0057
3965.00,0.0057
3964.00,0.0057
3963.00,0.0057
3962.00,0.0058
3961.00,0.0058
3960.00,0.0058
3959.00,0.0058
3958.00,0.0058
3957.00,0.0058
3956.00,0.0058
3955.00,0.0058
3954.00,0.0058
3953.00,0.0059
3952.00,0.0059
3951.00,0.0059
3950.00,0.0059
3949.00,0.0059
3948.00,0.0059
3947.00,0.0060
3946.00,0.0060
3945.00,0.0061
3944.00,0.0060
3943.00,0.0060
3942.00,0.0059
3941.00,0.0058
3940.00,0.0058
3939.00,0.0059
3938.00,0.0059
3937.00,0.0059
3936.00,0.0059
3935.00,0.0060
3934.00,0.0061
3933.00,0.0062
3932.00,0.0061
3931.00,0.0060
3930.00,0.0059
3929.00,0.0059
3928.00,0.0059
3927.00,0.0059
3926.00,0.0059
3925.00,0.0059
3924.00,0.0058
3923.00,0.0059
3922.00,0.0060
3921.00,0.0061
3920.00,0.0062
3919.00,0.0062
3918.00,0.0062
3917.00,0.0061
3916.00,0.0060
3915.00,0.0059
3914.00,0.0058
3913.00,0.0058
3912.00,0.0058
3911.00,0.0057
3910.00,0.0057
3909.00,0.0058
3908.00,0.0059
3907.00,0.0060
3906.00,0.0062
3905.00,0.0063
3904.00,0.0066
3903.00,0.0068
3902.00,0.0069
3901.00,0.0070
3900.00,0.0069
3899.00,0.0067
3898.00,0.0065
3897.00,0.0063
3896.00,0.0063
3895.00,0.0063
3894.00,0.0062
3893.00,0.0062
3892.00,0.0061
3891.00,0.0060
3890.00,0.0060
3889.00,0.0061
3888.00,0.0063
3887.00,0.0064
3886.00,0.0065
3885.00,0.0065
3884.00,0.0065
3883.00,0.0066
3882.00,0.0067
3881.00,0.0066
3880.00,0.0064
3879.00,0.0063
3878.00,0.0063
3877.00,0.0064
3876.00,0.0065
3875.00,0.0065
3874.00,0.0065
3873.00,0.0064
3872.00,0.0065
3871.00,0.0066
3870.00,0.0067
3869.00,0.0067
3868.00,0.0067
3867.00,0.0068
3866.00,0.0069
3865.00,0.0069
3864.00,0.0068
3863.00,0.0066
3862.00,0.0066
3861.00,0.0065
3860.00,0.0065
3859.00,0.0064
3858.00,0.0061
3857.00,0.0059
3856.00,0.0057
3855.00,0.0059
3854.00,0.0061
3853.00,0.0062
3852.00,0.0064
3851.00,0.0065
3850.00,0.0066
3849.00,0.0066
3848.00,0.0065
3847.00,0.0065
3846.00,0.0064
3845.00,0.0064
3844.00,0.0065
3843.00,0.0065
3842.00,0.0066
3841.00,0.0067
3840.00,0.0068
3839.00,0.0068
3838.00,0.0069
3837.00,0.0069
3836.00,0.0069
3835.00,0.0069
3834.00,0.0069
3833.00,0.0068
3832.00,0.0067
3831.00,0.0066
3830.00,0.0065
3829.00,0.0064
3828.00,0.0063
3827.00,0.0062
3826.00,0.0061
3825.00,0.0061
3824.00,0.0063
3823.00,0.0067
3822.00,0.0070
3821.00,0.0070
3820.00,0.0069
3819.00,0.0068
3818.00,0.0068
3817.00,0.0068
3816.00,0.0067
3815.00,0.0064
3814.00,0.0062
3813.00,0.0061
3812.00,0.0060
3811.00,0.0059
3810.00,0.0059
3809.00,0.0059
3808.00,0.0060
3807.00,0.0061
3806.00,0.0062
3805.00,0.0063
3804.00,0.0065
3803.00,0.0067
3802.00,0.0068
3801.00,0.0068
3800.00,0.0067
3799.00,0.0068
3798.00,0.0068
3797.00,0.0066
3796.00,0.0064
3795.00,0.0061
3794.00,0.0060
3793.00,0.0059
3792.00,0.0058
3791.00,0.0057
3790.00,0.0056
3789.00,0.0056
3788.00,0.0056
3787.00,0.0056
3786.00,0.0057
3785.00,0.0057
3784.00,0.0058
3783.00,0.0059
3782.00,0.0061
3781.00,0.0062
3780.00,0.0062
3779.00,0.0060
3778.00,0.0059
3777.00,0.0059
3776.00,0.0059
3775.00,0.0059
3774.00,0.0059
3773.00,0.0059
3772.00,0.0060
3771.00,0.0061
3770.00,0.0063
3769.00,0.0064
3768.00,0.0065
3767.00,0.0066
3766.00,0.0066
3765.00,0.0065
3764.00,0.0065
3763.00,0.0065
3762.00,0.0066
3761.00,0.0067
3760.00,0.0068
3759.00,0.0068
3758.00,0.0068
3757.00,0.0069
3756.00,0.0071
3755.00,0.0072
3754.00,0.0074
3753.00,0.0075
3752.00,0.0076
3751.00,0.0077
3750.00,0.0078
3749.00,0.0080
3748.00,0.0081
3747.00,0.0081
3746.00,0.0082
3745.00,0.0083
3744.00,0.0082
3743.00,0.0081
3742.00,0.0080
3741.00,0.0080
3740.00,0.0081
3739.00,0.0082
3738.00,0.0084
3737.00,0.0085
3736.00,0.0085
3735.00,0.0084
3734.00,0.0083
3733.00,0.0082
3732.00,0.0082
3731.00,0.0081
3730.00,0.0080
3729.00,0.0079
3728.00,0.0079
3727.00,0.0079
3726.00,0.0078
3725.00,0.0078
3724.00,0.0078
3723.00,0.0078
3722.00,0.0077
3721.00,0.0077
3720.00,0.0076
3719.00,0.0076
3718.00,0.0075
3717.00,0.0075
3716.00,0.0075
3715.00,0.0076
3714.00,0.0078
3713.00,0.0081
3712.00,0.0084
3711.00,0.0086
3710.00,0.0087
3709.00,0.0087
3708.00,0.0087
3707.00,0.0087
3706.00,0.0086
3705.00,0.0086
3704.00,0.0086
3703.00,0.0086
3702.00,0.0085
3701.00,0.0085
3700.00,0.0086
3699.00,0.0087
3698.00,0.0088
3697.00,0.0089
3696.00,0.0089
3695.00,0.0090
3694.00,0.0092
3693.00,0.0094
3692.00,0.0097
3691.00,0.0099
3690.00,0.0101
3689.00,0.0104
3688.00,0.0107
3687.00,0.0109
3686.00,0.0110
3685.00,0.0111
3684.00,0.0111
3683.00,0.0113
3682.00,0.0114
3681.00,0.0116
3680.00,0.0117
3679.00,0.0119
3678.00,0.0123
3677.00,0.0128
3676.00,0.0134
3675.00,0.0138
3674.00,0.0143
3673.00,0.0147
3672.00,0.0153
3671.00,0.0156
3670.00,0.0158
3669.00,0.0158
3668.00,0.0159
3667.00,0.0161
3666.00,0.0163
3665.00,0.0164
3664.00,0.0166
3663.00,0.0168
3662.00,0.0171
3661.00,0.0174
3660.00,0.0178
3659.00,0.0182
3658.00,0.0188
3657.00,0.0194
3656.00,0.0201
3655.00,0.0208
3654.00,0.0214
3653.00,0.0221
3652.00,0.0229
3651.00,0.0237
3650.00,0.0245
3649.00,0.0254
3648.00,0.0262
3647.00,0.0269
3646.00,0.0274
3645.00,0.0277
3644.00,0.0280
3643.00,0.0283
3642.00,0.0286
3641.00,0.0290
3640.00,0.0294
3639.00,0.0300
3638.00,0.0305
3637.00,0.0312
3636.00,0.0318
3635.00,0.0325
3634.00,0.0332
3633.00,0.0339
3632.00,0.0346
3631.00,0.0354
3630.00,0.0365
3629.00,0.0376
3628.00,0.0386
3627.00,0.0396
3626.00,0.0405
3625.00,0.0411
3624.00,0.0416
3623.00,0.0420
3622.00,0.0425
3621.00,0.0431
3620.00,0.0439
3619.00,0.0447
3618.00,0.0457
3617.00,0.0468
3616.00,0.0477
3615.00,0.0485
3614.00,0.0491
3613.00,0.0498
3612.00,0.0505
3611.00,0.0514
3610.00,0.0522
3609.00,0.0531
3608.00,0.0538
3607.00,0.0545
3606.00,0.0551
3605.00,0.0558
3604.00,0.0564
3603.00,0.0570
3602.00,0.0576
3601.00,0.0582
3600.00,0.0589
3599.00,0.0597
3598.00,0.0605
3597.00,0.0613
3596.00,0.0622
3595.00,0.0630
3594.00,0.0637
3593.00,0.0645
3592.00,0.0652
3591.00,0.0659
3590.00,0.0666
3589.00,0.0674
3588.00,0.0683
3587.00,0.0692
3586.00,0.0703
3585.00,0.0712
3584.00,0.0720
3583.00,0.0726
3582.00,0.0731
3581.00,0.0735
3580.00,0.0740
3579.00,0.0746
3578.00,0.0752
3577.00,0.0759
3576.00,0.0767
3575.00,0.0775
3574.00,0.0783
3573.00,0.0791
3572.00,0.0799
3571.00,0.0806
3570.00,0.0814
3569.00,0.0822
3568.00,0.0831
3567.00,0.0841
3566.00,0.0852
3565.00,0.0863
3564.00,0.0872
3563.00,0.0880
3562.00,0.0886
3561.00,0.0891
3560.00,0.0896
3559.00,0.0901
3558.00,0.0907
3557.00,0.0914
3556.00,0.0921
3555.00,0.0928
3554.00,0.0935
3553.00,0.0943
3552.00,0.0951
3551.00,0.0959
3550.00,0.0968
3549.00,0.0976
3548.00,0.0983
3547.00,0.0991
3546.00,0.0998
3545.00,0.1007
3544.00,0.1015
3543.00,0.1023
3542.00,0.1031
3541.00,0.1037
3540.00,0.1043
3539.00,0.1049
3538.00,0.1054
3537.00,0.1061
3536.00,0.1067
3535.00,0.1074
3534.00,0.1082
3533.00,0.1089
3532.00,0.1095
3531.00,0.1101
3530.00,0.1108
3529.00,0.1115
3528.00,0.1123
3527.00,0.1131
3526.00,0.1140
3525.00,0.1148
3524.00,0.1156
3523.00,0.1162
3522.00,0.1169
3521.00,0.1176
3520.00,0.1182
3519.00,0.1188
3518.00,0.1194
3517.00,0.1200
3516.00,0.1206
3515.00,0.1213
3514.00,0.1220
3513.00,0.1227
3512.00,0.1234
3511.00,0.1240
3510.00,0.1247
3509.00,0.1254
3508.00,0.1262
3507.00,0.1270
3506.00,0.1277
3505.00,0.1284
3504.00,0.1291
3503.00,0.1298
3502.00,0.1304
3501.00,0.1311
3500.00,0.1318
3499.00,0.1325
3498.00,0.1331
3497.00,0.1337
3496.00,0.1343
3495.00,0.1349
3494.00,0.1356
3493.00,0.1362
3492.00,0.1368
3491.00,0.1375
3490.00,0.1381
3489.00,0.1388
3488.00,0.1395
3487.00,0.1402
3486.00,0.1409
3485.00,0.1416
3484.00,0.1422
3483.00,0.1428
3482.00,0.1435
3481.00,0.1442
3480.00,0.1449
3479.00,0.1456
3478.00,0.1462
3477.00,0.1468
3476.00,0.1474
3475.00,0.1480
3474.00,0.1487
3473.00,0.1494
3472.00,0.1501
3471.00,0.1508
3470.00,0.1515
3469.00,0.1522
3468.00,0.1529
3467.00,0.1534
3466.00,0.1540
3465.00,0.1545
3464.00,0.1551
3463.00,0.1558
3462.00,0.1564
3461.00,0.1571
3460.00,0.1577
3459.00,0.1583
3458.00,0.1589
3457.00,0.1595
3456.00,0.1601
3455.00,0.1607
3454.00,0.1613
3453.00,0.1618
3452.00,0.1624
3451.00,0.1629
3450.00,0.1635
3449.00,0.1641
3448.00,0.1648
3447.00,0.1655
3446.00,0.1662
3445.00,0.1669
3444.00,0.1675
3443.00,0.1680
3442.00,0.1685
3441.00,0.1691
3440.00,0.1697
3439.00,0.1704
3438.00,0.1710
3437.00,0.1716
3436.00,0.1722
3435.00,0.1727
3434.00,0.1732
3433.00,0.1737
3432.00,0.1742
3431.00,0.1747
3430.00,0.1753
3429.00,0.1758
3428.00,0.1763
3427.00,0.1768
3426.00,0.1773
3425.00,0.1778
3424.00,0.1783
3423.00,0.1788
3422.00,0.1793
3421.00,0.1799
3420.00,0.1804
3419.00,0.1810
3418.00,0.1815
3417.00,0.1821
3416.00,0.1825
3415.00,0.1830
3414.00,0.1835
3413.00,0.1841
3412.00,0.1846
3411.00,0.1850
3410.00,0.1854
3409.00,0.1858
3408.00,0.1861
3407.00,0.1865
3406.00,0.1869
3405.00,0.1873
3404.00,0.1878
3403.00,0.1883
3402.00,0.1888
3401.00,0.1891
3400.00,0.1894
3399.00,0.1897
3398.00,0.1899
3397.00,0.1901
3396.00,0.1904
3395.00,0.1907
3394.00,0.1910
3393.00,0.1914
3392.00,0.1917
3391.00,0.1920
3390.00,0.1922
3389.00,0.1924
3388.00,0.1925
3387.00,0.1927
3386.00,0.1929
3385.00,0.1931
3384.00,0.1933
3383.00,0.1936
3382.00,0.1938
3381.00,0.1940
3380.00,0.1942
3379.00,0.1943
3378.00,0.1944
3377.00,0.1946
3376.00,0.1947
3375.00,0.1948
3374.00,0.1950
3373.00,0.1951
3372.00,0.1953
3371.00,0.1954
3370.00,0.1955
3369.00,0.1956
3368.00,0.1956
3367.00,0.1956
3366.00,0.1956
3365.00,0.1957
3364.00,0.1958
3363.00,0.1959
3362.00,0.1960
3361.00,0.1960
3360.00,0.1960
3359.00,0.1959
3358.00,0.1959
3357.00,0.1958
3356.00,0.1959
3355.00,0.1959
3354.00,0.1960
3353.00,0.1960
3352.00,0.1960
3351.00,0.1959
3350.00,0.1958
3349.00,0.1957
3348.00,0.1956
3347.00,0.1955
3346.00,0.1955
3345.00,0.1955
3344.00,0.1955
3343.00,0.1955
3342.00,0.1954
3341.00,0.1953
3340.00,0.1952
3339.00,0.1951
3338.00,0.1950
3337.00,0.1949
3336.00,0.1947
3335.00,0.1946
3334.00,0.1945
3333.00,0.1944
3332.00,0.1943
3331.00,0.1942
3330.00,0.1941
3329.00,0.1940
3328.00,0.1939
3327.00,0.1938
3326.00,0.1937
3325.00,0.1936
3324.00,0.1935
3323.00,0.1934
3322.00,0.1933
3321.00,0.1932
3320.00,0.1930
3319.00,0.1929
3318.00,0.1928
3317.00,0.1926
3316.00,0.1925
3315.00,0.1924
3314.00,0.1922
3313.00,0.1922
3312.00,0.1921
3311.00,0.1920
3310.00,0.1919
3309.00,0.1918
3308.00,0.1916
3307.00,0.1915
3306.00,0.1913
3305.00,0.1913
3304.00,0.1912
3303.00,0.1911
3302.00,0.1909
3301.00,0.1908
3300.00,0.1906
3299.00,0.1905
3298.00,0.1903
3297.00,0.1902
3296.00,0.1900
3295.00,0.1898
3294.00,0.1897
3293.00,0.1895
3292.00,0.1894
3291.00,0.1892
3290.00,0.1891
3289.00,0.1889
3288.00,0.1887
3287.00,0.1885
3286.00,0.1883
3285.00,0.1881
3284.00,0.1878
3283.00,0.1875
3282.00,0.1872
3281.00,0.1870
3280.00,0.1867
3279.00,0.1865
3278.00,0.1863
3277.00,0.1861
3276.00,0.1858
3275.00,0.1856
3274.00,0.1852
3273.00,0.1849
3272.00,0.1845
3271.00,0.1842
3270.00,0.1839
3269.00,0.1836
3268.00,0.1833
3267.00,0.1829
3266.00,0.1825
3265.00,0.1821
3264.00,0.1817
3263.00,0.1812
3262.00,0.1808
3261.00,0.1804
3260.00,0.1800
3259.00,0.1796
3258.00,0.1791
3257.00,0.1787
3256.00,0.1782
3255.00,0.1777
3254.00,0.1772
3253.00,0.1768
3252.00,0.1763
3251.00,0.1758
3250.00,0.1753
3249.00,0.1749
3248.00,0.1744
3247.00,0.1740
3246.00,0.1735
3245.00,0.1730
3244.00,0.1725
3243.00,0.1720
3242.00,0.1715
3241.00,0.1710
3240.00,0.1704
3239.00,0.1699
3238.00,0.1694
3237.00,0.1690
3236.00,0.1685
3235.00,0.1680
3234.00,0.1674
3233.00,0.1669
3232.00,0.1663
3231.00,0.1658
3230.00,0.1652
3229.00,0.1647
3228.00,0.1642
3227.00,0.1637
3226.00,0.1632
3225.00,0.1626
3224.00,0.1621
3223.00,0.1614
3222.00,0.1608
3221.00,0.1602
3220.00,0.1596
3219.00,0.1590
3218.00,0.1584
3217.00,0.1578
3216.00,0.1572
3215.00,0.1567
3214.00,0.1561
3213.00,0.1555
3212.00,0.1549
3211.00,0.1542
3210.00,0.1536
3209.00,0.1530
3208.00,0.1524
3207.00,0.1517
3206.00,0.1511
3205.00,0.1504
3204.00,0.1497
3203.00,0.1490
3202.00,0.1483
3201.00,0.1477
3200.00,0.1470
3199.00,0.1463
3198.00,0.1456
3197.00,0.1449
3196.00,0.1443
3195.00,0.1436
3194.00,0.1429
3193.00,0.1422
3192.00,0.1415
3191.00,0.1408
3190.00,0.1401
3189.00,0.1394
3188.00,0.1387
3187.00,0.1380
3186.00,0.1373
3185.00,0.1366
3184.00,0.1359
3183.00,0.1352
3182.00,0.1345
3181.00,0.1337
3180.00,0.1330
3179.00,0.1323
3178.00,0.1316
3177.00,0.1309
3176.00,0.1302
3175.00,0.1294
3174.00,0.1286
3173.00,0.1278
3172.00,0.1270
3171.00,0.1263
3170.00,0.1255
3169.00,0.1248
3168.00,0.1240
3167.00,0.1233
3166.00,0.1226
3165.00,0.1218
3164.00,0.1211
3163.00,0.1203
3162.00,0.1196
3161.00,0.1188
3160.00,0.1181
3159.00,0.1173
3158.00,0.1166
3157.00,0.1160
3156.00,0.1153
3155.00,0.1146
3154.00,0.1139
3153.00,0.1132
3152.00,0.1125
3151.00,0.1118
3150.00,0.1110
3149.00,0.1103
3148.00,0.1096
3147.00,0.1089
3146.00,0.1083
3145.00,0.1076
3144.00,0.1069
3143.00,0.1063
3142.00,0.1056
3141.00,0.1049
3140.00,0.1043
3139.00,0.1037
3138.00,0.1030
3137.00,0.1023
3136.00,0.1017
3135.00,0.1010
3134.00,0.1004
3133.00,0.0997
3132.00,0.0991
3131.00,0.0985
3130.00,0.0979
3129.00,0.0973
3128.00,0.0968
3127.00,0.0962
3126.00,0.0956
3125.00,0.0950
3124.00,0.0944
3123.00,0.0938
3122.00,0.0932
3121.00,0.0927
3120.00,0.0921
3119.00,0.0916
3118.00,0.0910
3117.00,0.0905
3116.00,0.0900
3115.00,0.0895
3114.00,0.0890
3113.00,0.0885
3112.00,0.0880
3111.00,0.0875
3110.00,0.0869
3109.00,0.0864
3108.00,0.0860
3107.00,0.0855
3106.00,0.0851
3105.00,0.0847
3104.00,0.0842
3103.00,0.0837
3102.00,0.0833
3101.00,0.0828
3100.00,0.0824
3099.00,0.0820
3098.00,0.0817
3097.00,0.0813
3096.00,0.0809
3095.00,0.0804
3094.00,0.0800
3093.00,0.0795
3092.00,0.0791
3091.00,0.0787
3090.00,0.0783
3089.00,0.0779
3088.00,0.0775
3087.00,0.0771
3086.00,0.0767
3085.00,0.0763
3084.00,0.0759
3083.00,0.0756
3082.00,0.0752
3081.00,0.0748
3080.00,0.0745
3079.00,0.0741
3078.00,0.0738
3077.00,0.0735
3076.00,0.0731
3075.00,0.0728
3074.00,0.0724
3073.00,0.0720
3072.00,0.0716
3071.00,0.0712
3070.00,0.0708
3069.00,0.0704
3068.00,0.0700
3067.00,0.0696
3066.00,0.0692
3065.00,0.0689
3064.00,0.0685
3063.00,0.0682
3062.00,0.0678
3061.00,0.0674
3060.00,0.0670
3059.00,0.0665
3058.00,0.0661
3057.00,0.0657
3056.00,0.0652
3055.00,0.0648
3054.00,0.0645
3053.00,0.0641
3052.00,0.0637
3051.00,0.0633
3050.00,0.0629
3049.00,0.0625
3048.00,0.0621
3047.00,0.0616
3046.00,0.0612
3045.00,0.0608
3044.00,0.0604
3043.00,0.0600
3042.00,0.0596
3041.00,0.0593
3040.00,0.0589
3039.00,0.0585
3038.00,0.0581
3037.00,0.0578
3036.00,0.0574
3035.00,0.0571
3034.00,0.0568
3033.00,0.0565
3032.00,0.0561
3031.00,0.0558
3030.00,0.0555
3029.00,0.0552
3028.00,0.0548
3027.00,0.0545
3026.00,0.0542
3025.00,0.0539
3024.00,0.0536
3023.00,0.0533
3022.00,0.0529
3021.00,0.0526
3020.00,0.0524
3019.00,0.0521
3018.00,0.0519
3017.00,0.0517
3016.00,0.0515
3015.00,0.0512
3014.00,0.0510
3013.00,0.0508
3012.00,0.0506
3011.00,0.0504
3010.00,0.0501
3009.00,0.0499
3008.00,0.0496
3007.00,0.0493
3006.00,0.0491
3005.00,0.0489
3004.00,0.0487
3003.00,0.0486
3002.00,0.0484
3001.00,0.0483
3000.00,0.0481
2999.00,0.0480
2998.00,0.0479
2997.00,0.0478
2996.00,0.0477
2995.00,0.0475
2994.00,0.0475
2993.00,0.0475
2992.00,0.0475
2991.00,0.0475
2990.00,0.0475
2989.00,0.0476
2988.00,0.0477
2987.00,0.0478
2986.00,0.0479
2985.00,0.0480
2984.00,0.0481
2983.00,0.0482
2982.00,0.0483
2981.00,0.0484
2980.00,0.0485
2979.00,0.0487
2978.00,0.0488
2977.00,0.0490
2976.00,0.0492
2975.00,0.0494
2974.00,0.0497
2973.00,0.0499
2972.00,0.0501
2971.00,0.0503
2970.00,0.0505
2969.00,0.0507
2968.00,0.0508
2967.00,0.0509
2966.00,0.0511
2965.00,0.0512
2964.00,0.0513
2963.00,0.0514
2962.00,0.0515
2961.00,0.0515
2960.00,0.0515
2959.00,0.0515
2958.00,0.0514
2957.00,0.0513
2956.00,0.0512
2955.00,0.0511
2954.00,0.0509
2953.00,0.0507
2952.00,0.0506
2951.00,0.0504
2950.00,0.0503
2949.00,0.0502
2948.00,0.0501
2947.00,0.0501
2946.00,0.0501
2945.00,0.0501
2944.00,0.0502
2943.00,0.0503
2942.00,0.0503
2941.00,0.0504
2940.00,0.0505
2939.00,0.0506
2938.00,0.0507
2937.00,0.0508
2936.00,0.0509
2935.00,0.0509
2934.00,0.0510
2933.00,0.0510
2932.00,0.0510
2931.00,0.0509
2930.00,0.0509
2929.00,0.0509
2928.00,0.0508
2927.00,0.0508
2926.00,0.0507
2925.00,0.0506
2924.00,0.0505
2923.00,0.0503
2922.00,0.0501
2921.00,0.0498
2920.00,0.0494
2919.00,0.0491
2918.00,0.0487
2917.00,0.0482
2916.00,0.0477
2915.00,0.0472
2914.00,0.0467
2913.00,0.0462
2912.00,0.0457
2911.00,0.0453
2910.00,0.0449
2909.00,0.0446
2908.00,0.0442
2907.00,0.0439
2906.00,0.0436
2905.00,0.0433
2904.00,0.0430
2903.00,0.0428
2902.00,0.0425
2901.00,0.0423
2900.00,0.0420
2899.00,0.0417
2898.00,0.0414
2897.00,0.0411
2896.00,0.0408
2895.00,0.0405
2894.00,0.0402
2893.00,0.0399
2892.00,0.0397
2891.00,0.0394
2890.00,0.0392
2889.00,0.0390
2888.00,0.0388
2887.00,0.0386
2886.00,0.0384
2885.00,0.0382
2884.00,0.0380
2883.00,0.0378
2882.00,0.0376
2881.00,0.0375
2880.00,0.0373
2879.00,0.0372
2878.00,0.0370
2877.00,0.0369
2876.00,0.0367
2875.00,0.0365
2874.00,0.0363
2873.00,0.0361
2872.00,0.0358
2871.00,0.0356
2870.00,0.0353
2869.00,0.0350
2868.00,0.0347
2867.00,0.0344
2866.00,0.0341
2865.00,0.0338
2864.00,0.0336
2863.00,0.0334
2862.00,0.0333
2861.00,0.0332
2860.00,0.0331
2859.00,0.0331
2858.00,0.0330
2857.00,0.0330
2856.00,0.0330
2855.00,0.0330
2854.00,0.0329
2853.00,0.0328
2852.00,0.0326
2851.00,0.0324
2850.00,0.0321
2849.00,0.0317
2848.00,0.0312
2847.00,0.0307
2846.00,0.0302
2845.00,0.0297
2844.00,0.0292
2843.00,0.0288
2842.00,0.0284
2841.00,0.0280
2840.00,0.0277
2839.00,0.0274
2838.00,0.0272
2837.00,0.0270
2836.00,0.0268
2835.00,0.0267
2834.00,0.0265
2833.00,0.0263
2832.00,0.0261
2831.00,0.0260
2830.00,0.0258
2829.00,0.0256
2828.00,0.0255
2827.00,0.0254
2826.00,0.0253
2825.00,0.0251
2824.00,0.0250
2823.00,0.0249
2822.00,0.0247
2821.00,0.0246
2820.00,0.0244
2819.00,0.0242
2818.00,0.0241
2817.00,0.0240
2816.00,0.0239
2815.00,0.0238
2814.00,0.0237
2813.00,0.0235
2812.00,0.0234
2811.00,0.0232
2810.00,0.0231
2809.00,0.0230
2808.00,0.0229
2807.00,0.0228
2806.00,0.0226
2805.00,0.0225
2804.00,0.0224
2803.00,0.0223
2802.00,0.0222
2801.00,0.0221
2800.00,0.0220
2799.00,0.0218
2798.00,0.0217
2797.00,0.0217
2796.00,0.0216
2795.00,0.0215
2794.00,0.0214
2793.00,0.0213
2792.00,0.0211
2791.00,0.0210
2790.00,0.0209
2789.00,0.0209
2788.00,0.0208
2787.00,0.0208
2786.00,0.0207
2785.00,0.0206
2784.00,0.0205
2783.00,0.0204
2782.00,0.0204
2781.00,0.0203
2780.00,0.0202
2779.00,0.0201
2778.00,0.0200
2777.00,0.0199
2776.00,0.0198
2775.00,0.0197
2774.00,0.0196
2773.00,0.0195
2772.00,0.0195
2771.00,0.0194
2770.00,0.0193
2769.00,0.0193
2768.00,0.0192
2767.00,0.0191
2766.00,0.0191
2765.00,0.0190
2764.00,0.0189
2763.00,0.0189
2762.00,0.0188
2761.00,0.0187
2760.00,0.0186
2759.00,0.0186
2758.00,0.0185
2757.00,0.0185
2756.00,0.0184
2755.00,0.0184
2754.00,0.0183
2753.00,0.0183
2752.00,0.0182
2751.00,0.0181
2750.00,0.0181
2749.00,0.0180
2748.00,0.0180
2747.00,0.0179
2746.00,0.0179
2745.00,0.0178
2744.00,0.0177
2743.00,0.0177
2742.00,0.0176
2741.00,0.0175
2740.00,0.0175
2739.00,0.0174
2738.00,0.0174
2737.00,0.0173
2736.00,0.0173
2735.00,0.0172
2734.00,0.0172
2733.00,0.0171
2732.00,0.0171
2731.00,0.0170
2730.00,0.0169
2729.00,0.0169
2728.00,0.0168
2727.00,0.0167
2726.00,0.0167
2725.00,0.0166
2724.00,0.0165
2723.00,0.0165
2722.00,0.0164
2721.00,0.0164
2720.00,0.0163
2719.00,0.0163
2718.00,0.0163
2717.00,0.0162
2716.00,0.0162
2715.00,0.0161
2714.00,0.0160
2713.00,0.0160
2712.00,0.0159
2711.00,0.0158
2710.00,0.0158
2709.00,0.0157
2708.00,0.0157
2707.00,0.0157
2706.00,0.0157
2705.00,0.0156
2704.00,0.0156
2703.00,0.0155
2702.00,0.0155
2701.00,0.0154
2700.00,0.0153
2699.00,0.0153
2698.00,0.0153
2697.00,0.0153
2696.00,0.0152
2695.00,0.0152
2694.00,0.0152
2693.00,0.0151
2692.00,0.0151
2691.00,0.0150
2690.00,0.0150
2689.00,0.0150
2688.00,0.0149
2687.00,0.0149
2686.00,0.0149
2685.00,0.0148
2684.00,0.0148
2683.00,0.0148
2682.00,0.0147
2681.00,0.0147
2680.00,0.0147
2679.00,0.0146
2678.00,0.0146
2677.00,0.0146
2676.00,0.0145
2675.00,0.0144
2674.00,0.0144
2673.00,0.0143
2672.00,0.0143
2671.00,0.0143
2670.00,0.0142
2669.00,0.0142
2668.00,0.0142
2667.00,0.0142
2666.00,0.0142
2665.00,0.0142
2664.00,0.0142
2663.00,0.0142
2662.00,0.0142
2661.00,0.0142
2660.00,0.0142
2659.00,0.0142
2658.00,0.0142
2657.00,0.0141
2656.00,0.0141
2655.00,0.0140
2654.00,0.0140
2653.00,0.0139
2652.00,0.0139
2651.00,0.0138
2650.00,0.0138
2649.00,0.0138
2648.00,0.0137
2647.00,0.0137
2646.00,0.0137
2645.00,0.0137
2644.00,0.0136
2643.00,0.0135
2642.00,0.0135
2641.00,0.0134
2640.00,0.0133
2639.00,0.0132
2638.00,0.0131
2637.00,0.0131
2636.00,0.0131
2635.00,0.0130
2634.00,0.0130
2633.00,0.0129
2632.00,0.0128
2631.00,0.0128
2630.00,0.0128
2629.00,0.0127
2628.00,0.0127
2627.00,0.0126
2626.00,0.0126
2625.00,0.0125
2624.00,0.0124
2623.00,0.0124
2622.00,0.0124
2621.00,0.0123
2620.00,0.0123
2619.00,0.0122
2618.00,0.0122
2617.00,0.0122
2616.00,0.0122
2615.00,0.0121
2614.00,0.0121
2613.00,0.0121
2612.00,0.0121
2611.00,0.0120
2610.00,0.0119
2609.00,0.0119
2608.00,0.0118
2607.00,0.0118
2606.00,0.0118
2605.00,0.0118
2604.00,0.0117
2603.00,0.0117
2602.00,0.0116
2601.00,0.0116
2600.00,0.0115
2599.00,0.0115
2598.00,0.0115
2597.00,0.0114
2596.00,0.0114
2595.00,0.0114
2594.00,0.0113
2593.00,0.0112
2592.00,0.0112
2591.00,0.0112
2590.00,0.0111
2589.00,0.0111
2588.00,0.0111
2587.00,0.0110
2586.00,0.0110
2585.00,0.0110
2584.00,0.0110
2583.00,0.0110
2582.00,0.0110
2581.00,0.0111
2580.00,0.0111
2579.00,0.0110
2578.00,0.0110
2577.00,0.0110
2576.00,0.0109
2575.00,0.0108
2574.00,0.0108
2573.00,0.0107
2572.00,0.0106
2571.00,0.0106
2570.00,0.0106
2569.00,0.0106
2568.00,0.0105
2567.00,0.0105
2566.00,0.0104
2565.00,0.0104
2564.00,0.0103
2563.00,0.0103
2562.00,0.0103
2561.00,0.0103
2560.00,0.0104
2559.00,0.0104
2558.00,0.0104
2557.00,0.0103
2556.00,0.0103
2555.00,0.0102
2554.00,0.0101
2553.00,0.0101
2552.00,0.0101
2551.00,0.0101
2550.00,0.0101
2549.00,0.0101
2548.00,0.0100
2547.00,0.0100
2546.00,0.0100
2545.00,0.0099
2544.00,0.0099
2543.00,0.0099
2542.00,0.0099
2541.00,0.0099
2540.00,0.0100
2539.00,0.0100
2538.00,0.0099
2537.00,0.0099
2536.00,0.0099
2535.00,0.0099
2534.00,0.0099
2533.00,0.0099
2532.00,0.0099
2531.00,0.0100
2530.00,0.0099
2529.00,0.0099
2528.00,0.0099
2527.00,0.0099
2526.00,0.0099
2525.00,0.0099
2524.00,0.0099
2523.00,0.0098
2522.00,0.0098
2521.00,0.0098
2520.00,0.0098
2519.00,0.0099
2518.00,0.0098
2517.00,0.0098
2516.00,0.0097
2515.00,0.0097
2514.00,0.0098
2513.00,0.0098
2512.00,0.0097
2511.00,0.0097
2510.00,0.0096
2509.00,0.0096
2508.00,0.0096
2507.00,0.0096
2506.00,0.0096
2505.00,0.0096
2504.00,0.0096
2503.00,0.0096
2502.00,0.0096
2501.00,0.0095
2500.00,0.0095
2499.00,0.0095
2498.00,0.0095
2497.00,0.0096
2496.00,0.0096
2495.00,0.0096
2494.00,0.0095
2493.00,0.0095
2492.00,0.0095
2491.00,0.0095
2490.00,0.0096
2489.00,0.0096
2488.00,0.0096
2487.00,0.0096
2486.00,0.0095
2485.00,0.0095
2484.00,0.0095
2483.00,0.0095
2482.00,0.0095
2481.00,0.0094
2480.00,0.0093
2479.00,0.0093
2478.00,0.0093
2477.00,0.0093
2476.00,0.0093
2475.00,0.0093
2474.00,0.0093
2473.00,0.0093
2472.00,0.0093
2471.00,0.0093
2470.00,0.0092
2469.00,0.0092
2468.00,0.0092
2467.00,0.0092
2466.00,0.0093
2465.00,0.0093
2464.00,0.0093
2463.00,0.0094
2462.00,0.0094
2461.00,0.0094
2460.00,0.0094
2459.00,0.0095
2458.00,0.0096
2457.00,0.0096
2456.00,0.0096
2455.00,0.0095
2454.00,0.0094
2453.00,0.0093
2452.00,0.0093
2451.00,0.0093
2450.00,0.0093
2449.00,0.0093
2448.00,0.0093
2447.00,0.0092
2446.00,0.0092
2445.00,0.0091
2444.00,0.0091
2443.00,0.0091
2442.00,0.0091
2441.00,0.0092
2440.00,0.0092
2439.00,0.0092
2438.00,0.0092
2437.00,0.0092
2436.00,0.0091
2435.00,0.0091
2434.00,0.0091
2433.00,0.0091
2432.00,0.0091
2431.00,0.0091
2430.00,0.0091
2429.00,0.0090
2428.00,0.0090
2427.00,0.0090
2426.00,0.0090
2425.00,0.0091
2424.00,0.0091
2423.00,0.0091
2422.00,0.0090
2421.00,0.0089
2420.00,0.0089
2419.00,0.0089
2418.00,0.0089
2417.00,0.0089
2416.00,0.0089
2415.00,0.0090
2414.00,0.0090
2413.00,0.0090
2412.00,0.0090
2411.00,0.0090
2410.00,0.0090
2409.00,0.0090
2408.00,0.0090
2407.00,0.0090
2406.00,0.0089
2405.00,0.0090
2404.00,0.0090
2403.00,0.0090
2402.00,0.0090
2401.00,0.0090
2400.00,0.0090
2399.00,0.0090
2398.00,0.0090
2397.00,0.0090
2396.00,0.0091
2395.00,0.0091
2394.00,0.0091
2393.00,0.0091
2392.00,0.0091
2391.00,0.0091
2390.00,0.0091
2389.00,0.0091
2388.00,0.0091
2387.00,0.0092
2386.00,0.0092
2385.00,0.0091
2384.00,0.0091
2383.00,0.0091
2382.00,0.0091
2381.00,0.0091
2380.00,0.0092
2379.00,0.0092
2378.00,0.0092
2377.00,0.0092
2376.00,0.0092
2375.00,0.0093
2374.00,0.0093
2373.00,0.0094
2372.00,0.0094
2371.00,0.0094
2370.00,0.0094
2369.00,0.0094
2368.00,0.0094
2367.00,0.0095
2366.00,0.0095
2365.00,0.0095
2364.00,0.0097
2363.00,0.0098
2362.00,0.0099
2361.00,0.0101
2360.00,0.0101
2359.00,0.0101
2358.00,0.0100
2357.00,0.0099
2356.00,0.0099
2355.00,0.0099
2354.00,0.0099
2353.00,0.0099
2352.00,0.0099
2351.00,0.0098
2350.00,0.0098
2349.00,0.0099
2348.00,0.0102
2347.00,0.0105
2346.00,0.0106
2345.00,0.0105
2344.00,0.0103
2343.00,0.0102
2342.00,0.0103
2341.00,0.0104
2340.00,0.0104
2339.00,0.0104
2338.00,0.0104
2337.00,0.0104
2336.00,0.0104
2335.00,0.0104
2334.00,0.0105
2333.00,0.0104
2332.00,0.0103
2331.00,0.0103
2330.00,0.0102
2329.00,0.0103
2328.00,0.0106
2327.00,0.0109
2326.00,0.0113
2325.00,0.0116
2324.00,0.0117
2323.00,0.0116
2322.00,0.0114
2321.00,0.0113
2320.00,0.0111
2319.00,0.0111
2318.00,0.0111
2317.00,0.0111
2316.00,0.0111
2315.00,0.0110
2314.00,0.0110
2313.00,0.0109
2312.00,0.0109
2311.00,0.0108
2310.00,0.0108
2309.00,0.0108
2308.00,0.0107
2307.00,0.0107
2306.00,0.0106
2305.00,0.0105
2304.00,0.0106
2303.00,0.0107
2302.00,0.0108
2301.00,0.0109
2300.00,0.0109
2299.00,0.0110
2298.00,0.0110
2297.00,0.0111
2296.00,0.0111
2295.00,0.0112
2294.00,0.0112
2293.00,0.0113
2292.00,0.0114
2291.00,0.0115
2290.00,0.0116
2289.00,0.0116
2288.00,0.0117
2287.00,0.0116
2286.00,0.0115
2285.00,0.0115
2284.00,0.0116
2283.00,0.0116
2282.00,0.0116
2281.00,0.0116
2280.00,0.0115
2279.00,0.0115
2278.00,0.0115
2277.00,0.0114
2276.00,0.0113
2275.00,0.0112
2274.00,0.0112
2273.00,0.0112
2272.00,0.0112
2271.00,0.0113
2270.00,0.0113
2269.00,0.0113
2268.00,0.0112
2267.00,0.0110
2266.00,0.0109
2265.00,0.0108
2264.00,0.0108
2263.00,0.0108
2262.00,0.0108
2261.00,0.0109
2260.00,0.0110
2259.00,0.0110
2258.00,0.0110
2257.00,0.0109
2256.00,0.0109
2255.00,0.0108
2254.00,0.0106
2253.00,0.0106
2252.00,0.0106
2251.00,0.0105
2250.00,0.0105
2249.00,0.0105
2248.00,0.0106
2247.00,0.0107
2246.00,0.0107
2245.00,0.0108
2244.00,0.0108
2243.00,0.0108
2242.00,0.0108
2241.00,0.0107
2240.00,0.0107
2239.00,0.0106
2238.00,0.0106
2237.00,0.0107
2236.00,0.0108
2235.00,0.0108
2234.00,0.0108
2233.00,0.0107
2232.00,0.0105
2231.00,0.0104
2230.00,0.0104
2229.00,0.0106
2228.00,0.0107
2227.00,0.0108
2226.00,0.0108
2225.00,0.0107
2224.00,0.0106
2223.00,0.0104
2222.00,0.0104
2221.00,0.0104
2220.00,0.0105
2219.00,0.0105
2218.00,0.0105
2217.00,0.0105
2216.00,0.0105
2215.00,0.0106
2214.00,0.0107
2213.00,0.0108
2212.00,0.0108
2211.00,0.0107
2210.00,0.0106
2209.00,0.0105
2208.00,0.0105
2207.00,0.0105
2206.00,0.0105
2205.00,0.0105
2204.00,0.0106
2203.00,0.0106
2202.00,0.0106
2201.00,0.0104
2200.00,0.0103
2199.00,0.0102
2198.00,0.0102
2197.00,0.0102
2196.00,0.0102
2195.00,0.0102
2194.00,0.0103
2193.00,0.0103
2192.00,0.0103
2191.00,0.0103
2190.00,0.0103
2189.00,0.0104
2188.00,0.0105
2187.00,0.0107
2186.00,0.0108
2185.00,0.0109
2184.00,0.0108
2183.00,0.0105
2182.00,0.0101
2181.00,0.0097
2180.00,0.0095
2179.00,0.0093
2178.00,0.0092
2177.00,0.0094
2176.00,0.0096
2175.00,0.0098
2174.00,0.0100
2173.00,0.0100
2172.00,0.0101
2171.00,0.0101
2170.00,0.0103
2169.00,0.0105
2168.00,0.0107
2167.00,0.0108
2166.00,0.0106
2165.00,0.0103
2164.00,0.0100
2163.00,0.0100
2162.00,0.0100
2161.00,0.0097
2160.00,0.0089
2159.00,0.0077
2158.00,0.0067
2157.00,0.0063
2156.00,0.0065
2155.00,0.0070
2154.00,0.0075
2153.00,0.0078
2152.00,0.0080
2151.00,0.0081
2150.00,0.0080
2149.00,0.0079
2148.00,0.0080
2147.00,0.0080
2146.00,0.0081
2145.00,0.0083
2144.00,0.0085
2143.00,0.0086
2142.00,0.0087
2141.00,0.0088
2140.00,0.0090
2139.00,0.0091
2138.00,0.0091
2137.00,0.0091
2136.00,0.0090
2135.00,0.0089
2134.00,0.0088
2133.00,0.0089
2132.00,0.0092
2131.00,0.0095
2130.00,0.0098
2129.00,0.0101
2128.00,0.0104
2127.00,0.0107
2126.00,0.0108
2125.00,0.0110
2124.00,0.0111
2123.00,0.0111
2122.00,0.0111
2121.00,0.0111
2120.00,0.0111
2119.00,0.0111
2118.00,0.0112
2117.00,0.0115
2116.00,0.0117
2115.00,0.0119
2114.00,0.0120
2113.00,0.0119
2112.00,0.0119
2111.00,0.0119
2110.00,0.0119
2109.00,0.0119
2108.00,0.0119
2107.00,0.0120
2106.00,0.0120
2105.00,0.0120
2104.00,0.0120
2103.00,0.0120
2102.00,0.0119
2101.00,0.0119
2100.00,0.0119
2099.00,0.0119
2098.00,0.0119
2097.00,0.0117
2096.00,0.0115
2095.00,0.0113
2094.00,0.0112
2093.00,0.0112
2092.00,0.0112
2091.00,0.0113
2090.00,0.0113
2089.00,0.0113
2088.00,0.0113
2087.00,0.0113
2086.00,0.0114
2085.00,0.0115
2084.00,0.0116
2083.00,0.0116
2082.00,0.0116
2081.00,0.0115
2080.00,0.0115
2079.00,0.0115
2078.00,0.0115
2077.00,0.0115
2076.00,0.0114
2075.00,0.0113
2074.00,0.0111
2073.00,0.0110
2072.00,0.0109
2071.00,0.0109
2070.00,0.0108
2069.00,0.0108
2068.00,0.0108
2067.00,0.0107
2066.00,0.0105
2065.00,0.0104
2064.00,0.0104
2063.00,0.0103
2062.00,0.0103
2061.00,0.0103
2060.00,0.0102
2059.00,0.0100
2058.00,0.0099
2057.00,0.0099
2056.00,0.0099
2055.00,0.0098
2054.00,0.0098
2053.00,0.0100
2052.00,0.0102
2051.00,0.0104
2050.00,0.0102
2049.00,0.0098
2048.00,0.0095
2047.00,0.0093
2046.00,0.0091
2045.00,0.0089
2044.00,0.0087
2043.00,0.0084
2042.00,0.0082
2041.00,0.0081
2040.00,0.0081
2039.00,0.0081
2038.00,0.0081
2037.00,0.0080
2036.00,0.0079
2035.00,0.0076
2034.00,0.0073
2033.00,0.0072
2032.00,0.0072
2031.00,0.0072
2030.00,0.0072
2029.00,0.0071
2028.00,0.0068
2027.00,0.0065
2026.00,0.0063
2025.00,0.0063
2024.00,0.0065
2023.00,0.0069
2022.00,0.0072
2021.00,0.0074
2020.00,0.0075
2019.00,0.0073
2018.00,0.0070
2017.00,0.0067
2016.00,0.0065
2015.00,0.0064
2014.00,0.0063
2013.00,0.0064
2012.00,0.0064
2011.00,0.0065
2010.00,0.0065
2009.00,0.0065
2008.00,0.0064
2007.00,0.0061
2006.00,0.0059
2005.00,0.0058
2004.00,0.0060
2003.00,0.0063
2002.00,0.0066
2001.00,0.0069
2000.00,0.0072
1999.00,0.0073
1998.00,0.0074
1997.00,0.0076
1996.00,0.0078
1995.00,0.0081
1994.00,0.0082
1993.00,0.0081
1992.00,0.0080
1991.00,0.0079
1990.00,0.0078
1989.00,0.0078
1988.00,0.0078
1987.00,0.0077
1986.00,0.0075
1985.00,0.0075
1984.00,0.0077
1983.00,0.0078
1982.00,0.0078
1981.00,0.0079
1980.00,0.0078
1979.00,0.0075
1978.00,0.0071
1977.00,0.0068
1976.00,0.0064
1975.00,0.0061
1974.00,0.0059
1973.00,0.0058
1972.00,0.0058
1971.00,0.0058
1970.00,0.0058
1969.00,0.0059
1968.00,0.0060
1967.00,0.0060
1966.00,0.0059
1965.00,0.0060
1964.00,0.0060
1963.00,0.0060
1962.00,0.0059
1961.00,0.0059
1960.00,0.0058
1959.00,0.0058
1958.00,0.0059
1957.00,0.0061
1956.00,0.0064
1955.00,0.0066
1954.00,0.0065
1953.00,0.0064
1952.00,0.0063
1951.00,0.0063
1950.00,0.0063
1949.00,0.0063
1948.00,0.0064
1947.00,0.0064
1946.00,0.0065
1945.00,0.0067
1944.00,0.0068
1943.00,0.0067
1942.00,0.0064
1941.00,0.0063
1940.00,0.0064
1939.00,0.0066
1938.00,0.0067
1937.00,0.0067
1936.00,0.0067
1935.00,0.0067
1934.00,0.0067
1933.00,0.0067
1932.00,0.0067
1931.00,0.0067
1930.00,0.0066
1929.00,0.0066
1928.00,0.0066
1927.00,0.0067
1926.00,0.0068
1925.00,0.0069
1924.00,0.0070
1923.00,0.0070
1922.00,0.0070
1921.00,0.0070
1920.00,0.0072
1919.00,0.0072
1918.00,0.0071
1917.00,0.0068
1916.00,0.0068
1915.00,0.0068
1914.00,0.0069
1913.00,0.0070
1912.00,0.0071
1911.00,0.0071
1910.00,0.0070
1909.00,0.0069
1908.00,0.0068
1907.00,0.0068
1906.00,0.0068
1905.00,0.0068
1904.00,0.0067
1903.00,0.0066
1902.00,0.0066
1901.00,0.0067
1900.00,0.0068
1899.00,0.0069
1898.00,0.0070
1897.00,0.0070
1896.00,0.0070
1895.00,0.0068
1894.00,0.0066
1893.00,0.0065
1892.00,0.0066
1891.00,0.0067
1890.00,0.0066
1889.00,0.0064
1888.00,0.0063
1887.00,0.0063
1886.00,0.0064
1885.00,0.0063
1884.00,0.0063
1883.00,0.0063
1882.00,0.0063
1881.00,0.0064
1880.00,0.0064
1879.00,0.0064
1878.00,0.0063
1877.00,0.0062
1876.00,0.0061
1875.00,0.0062
1874.00,0.0063
1873.00,0.0065
1872.00,0.0066
1871.00,0.0068
1870.00,0.0068
1869.00,0.0066
1868.00,0.0063
1867.00,0.0060
1866.00,0.0059
1865.00,0.0060
1864.00,0.0061
1863.00,0.0061
1862.00,0.0061
1861.00,0.0061
1860.00,0.0061
1859.00,0.0061
1858.00,0.0060
1857.00,0.0060
1856.00,0.0059
1855.00,0.0059
1854.00,0.0059
1853.00,0.0059
1852.00,0.0059
1851.00,0.0060
1850.00,0.0060
1849.00,0.0060
1848.00,0.0061
1847.00,0.0062
1846.00,0.0064
1845.00,0.0065
1844.00,0.0063
1843.00,0.0059
1842.00,0.0057
1841.00,0.0057
1840.00,0.0059
1839.00,0.0061
1838.00,0.0061
1837.00,0.0060
1836.00,0.0060
1835.00,0.0060
1834.00,0.0061
1833.00,0.0062
1832.00,0.0064
1831.00,0.0066
1830.00,0.0065
1829.00,0.0063
1828.00,0.0061
1827.00,0.0061
1826.00,0.0062
1825.00,0.0061
1824.00,0.0059
1823.00,0.0058
1822.00,0.0058
1821.00,0.0060
1820.00,0.0061
1819.00,0.0061
1818.00,0.0060
1817.00,0.0058
1816.00,0.0058
1815.00,0.0058
1814.00,0.0059
1813.00,0.0061
1812.00,0.0061
1811.00,0.0061
1810.00,0.0060
1809.00,0.0060
1808.00,0.0059
1807.00,0.0059
1806.00,0.0059
1805.00,0.0060
1804.00,0.0060
1803.00,0.0060
1802.00,0.0060
1801.00,0.0060
1800.00,0.0061
1799.00,0.0061
1798.00,0.0061
1797.00,0.0060
1796.00,0.0061
1795.00,0.0061
1794.00,0.0063
1793.00,0.0064
1792.00,0.0062
1791.00,0.0059
1790.00,0.0057
1789.00,0.0057
1788.00,0.0059
1787.00,0.0061
1786.00,0.0061
1785.00,0.0060
1784.00,0.0059
1783.00,0.0059
1782.00,0.0060
1781.00,0.0060
1780.00,0.0059
1779.00,0.0058
1778.00,0.0058
1777.00,0.0059
1776.00,0.0061
1775.00,0.0062
1774.00,0.0065
1773.00,0.0067
1772.00,0.0065
1771.00,0.0062
1770.00,0.0059
1769.00,0.0059
1768.00,0.0059
1767.00,0.0058
1766.00,0.0057
1765.00,0.0059
1764.00,0.0061
1763.00,0.0063
1762.00,0.0062
1761.00,0.0060
1760.00,0.0061
1759.00,0.0064
1758.00,0.0066
1757.00,0.0069
1756.00,0.0070
1755.00,0.0072
1754.00,0.0076
1753.00,0.0082
1752.00,0.0088
1751.00,0.0092
1750.00,0.0094
1749.00,0.0096
1748.00,0.0098
1747.00,0.0101
1746.00,0.0104
1745.00,0.0107
1744.00,0.0110
1743.00,0.0112
1742.00,0.0114
1741.00,0.0117
1740.00,0.0121
1739.00,0.0121
1738.00,0.0121
1737.00,0.0122
1736.00,0.0128
1735.00,0.0135
1734.00,0.0136
1733.00,0.0134
1732.00,0.0133
1731.00,0.0134
1730.00,0.0135
1729.00,0.0137
1728.00,0.0139
1727.00,0.0142
1726.00,0.0146
1725.00,0.0149
1724.00,0.0153
1723.00,0.0156
1722.00,0.0158
1721.00,0.0162
1720.00,0.0168
1719.00,0.0175
1718.00,0.0182
1717.00,0.0187
1716.00,0.0190
1715.00,0.0193
1714.00,0.0195
1713.00,0.0200
1712.00,0.0206
1711.00,0.0212
1710.00,0.0218
1709.00,0.0225
1708.00,0.0234
1707.00,0.0244
1706.00,0.0253
1705.00,0.0261
1704.00,0.0267
1703.00,0.0274
1702.00,0.0286
1701.00,0.0305
1700.00,0.0327
1699.00,0.0343
1698.00,0.0358
1697.00,0.0375
1696.00,0.0396
1695.00,0.0416
1694.00,0.0433
1693.00,0.0450
1692.00,0.0469
1691.00,0.0490
1690.00,0.0511
1689.00,0.0532
1688.00,0.0550
1687.00,0.0568
1686.00,0.0589
1685.00,0.0620
1684.00,0.0656
1683.00,0.0686
1682.00,0.0708
1681.00,0.0728
1680.00,0.0747
1679.00,0.0766
1678.00,0.0784
1677.00,0.0804
1676.00,0.0831
1675.00,0.0862
1674.00,0.0891
1673.00,0.0915
1672.00,0.0936
1671.00,0.0960
1670.00,0.0988
1669.00,0.1019
1668.00,0.1049
1667.00,0.1074
1666.00,0.1093
1665.00,0.1113
1664.00,0.1138
1663.00,0.1170
1662.00,0.1203
1661.00,0.1234
1660.00,0.1261
1659.00,0.1284
1658.00,0.1304
1657.00,0.1317
1656.00,0.1324
1655.00,0.1333
1654.00,0.1358
1653.00,0.1409
1652.00,0.1459
1651.00,0.1485
1650.00,0.1489
1649.00,0.1487
1648.00,0.1491
1647.00,0.1506
1646.00,0.1526
1645.00,0.1543
1644.00,0.1552
1643.00,0.1554
1642.00,0.1554
1641.00,0.1553
1640.00,0.1554
1639.00,0.1552
1638.00,0.1549
1637.00,0.1548
1636.00,0.1555
1635.00,0.1566
1634.00,0.1571
1633.00,0.1565
1632.00,0.1552
1631.00,0.1536
1630.00,0.1519
1629.00,0.1502
1628.00,0.1487
1627.00,0.1472
1626.00,0.1455
1625.00,0.1436
1624.00,0.1416
1623.00,0.1396
1622.00,0.1376
1621.00,0.1353
1620.00,0.1328
1619.00,0.1302
1618.00,0.1275
1617.00,0.1249
1616.00,0.1225
1615.00,0.1201
1614.00,0.1175
1613.00,0.1147
1612.00,0.1117
1611.00,0.1089
1610.00,0.1062
1609.00,0.1036
1608.00,0.1010
1607.00,0.0985
1606.00,0.0961
1605.00,0.0937
1604.00,0.0913
1603.00,0.0890
1602.00,0.0867
1601.00,0.0845
1600.00,0.0824
1599.00,0.0804
1598.00,0.0785
1597.00,0.0766
1596.00,0.0747
1595.00,0.0730
1594.00,0.0713
1593.00,0.0697
1592.00,0.0681
1591.00,0.0666
1590.00,0.0653
1589.00,0.0641
1588.00,0.0629
1587.00,0.0618
1586.00,0.0609
1585.00,0.0599
1584.00,0.0591
1583.00,0.0584
1582.00,0.0578
1581.00,0.0572
1580.00,0.0566
1579.00,0.0561
1578.00,0.0558
1577.00,0.0558
1576.00,0.0559
1575.00,0.0559
1574.00,0.0559
1573.00,0.0557
1572.00,0.0555
1571.00,0.0556
1570.00,0.0560
1569.00,0.0564
1568.00,0.0567
1567.00,0.0571
1566.00,0.0575
1565.00,0.0579
1564.00,0.0582
1563.00,0.0583
1562.00,0.0582
1561.00,0.0584
1560.00,0.0595
1559.00,0.0615
1558.00,0.0635
1557.00,0.0648
1556.00,0.0653
1555.00,0.0657
1554.00,0.0663
1553.00,0.0668
1552.00,0.0672
1551.00,0.0675
1550.00,0.0677
1549.00,0.0679
1548.00,0.0681
1547.00,0.0681
1546.00,0.0679
1545.00,0.0676
1544.00,0.0672
1543.00,0.0668
1542.00,0.0666
1541.00,0.0663
1540.00,0.0659
1539.00,0.0651
1538.00,0.0643
1537.00,0.0632
1536.00,0.0620
1535.00,0.0607
1534.00,0.0594
1533.00,0.0581
1532.00,0.0568
1531.00,0.0557
1530.00,0.0547
1529.00,0.0536
1528.00,0.0523
1527.00,0.0510
1526.00,0.0498
1525.00,0.0488
1524.00,0.0478
1523.00,0.0469
1522.00,0.0459
1521.00,0.0448
1520.00,0.0437
1519.00,0.0428
1518.00,0.0418
1517.00,0.0405
1516.00,0.0390
1515.00,0.0376
1514.00,0.0363
1513.00,0.0351
1512.00,0.0337
1511.00,0.0322
1510.00,0.0308
1509.00,0.0296
1508.00,0.0285
1507.00,0.0270
1506.00,0.0254
1505.00,0.0242
1504.00,0.0233
1503.00,0.0223
1502.00,0.0212
1501.00,0.0202
1500.00,0.0193
1499.00,0.0184
1498.00,0.0175
1497.00,0.0168
1496.00,0.0160
1495.00,0.0154
1494.00,0.0149
1493.00,0.0146
1492.00,0.0143
1491.00,0.0140
1490.00,0.0135
1489.00,0.0129
1488.00,0.0124
1487.00,0.0121
1486.00,0.0118
1485.00,0.0117
1484.00,0.0117
1483.00,0.0118
1482.00,0.0120
1481.00,0.0122
1480.00,0.0125
1479.00,0.0129
1478.00,0.0134
1477.00,0.0140
1476.00,0.0145
1475.00,0.0152
1474.00,0.0162
1473.00,0.0173
1472.00,0.0182
1471.00,0.0189
1470.00,0.0194
1469.00,0.0199
1468.00,0.0202
1467.00,0.0205
1466.00,0.0209
1465.00,0.0215
1464.00,0.0221
1463.00,0.0226
1462.00,0.0231
1461.00,0.0235
1460.00,0.0237
1459.00,0.0241
1458.00,0.0246
1457.00,0.0254
1456.00,0.0261
1455.00,0.0265
1454.00,0.0266
1453.00,0.0265
1452.00,0.0263
1451.00,0.0262
1450.00,0.0261
1449.00,0.0260
1448.00,0.0260
1447.00,0.0258
1446.00,0.0257
1445.00,0.0257
1444.00,0.0257
1443.00,0.0256
1442.00,0.0256
1441.00,0.0256
1440.00,0.0256
1439.00,0.0255
1438.00,0.0255
1437.00,0.0256
1436.00,0.0259
1435.00,0.0262
1434.00,0.0265
1433.00,0.0267
1432.00,0.0269
1431.00,0.0272
1430.00,0.0275
1429.00,0.0279
1428.00,0.0282
1427.00,0.0286
1426.00,0.0290
1425.00,0.0294
1424.00,0.0298
1423.00,0.0301
1422.00,0.0303
1421.00,0.0305
1420.00,0.0309
1419.00,0.0313
1418.00,0.0317
1417.00,0.0319
1416.00,0.0321
1415.00,0.0321
1414.00,0.0320
1413.00,0.0318
1412.00,0.0317
1411.00,0.0315
1410.00,0.0313
1409.00,0.0311
1408.00,0.0308
1407.00,0.0305
1406.00,0.0301
1405.00,0.0297
1404.00,0.0294
1403.00,0.0290
1402.00,0.0286
1401.00,0.0282
1400.00,0.0278
1399.00,0.0272
1398.00,0.0267
1397.00,0.0262
1396.00,0.0256
1395.00,0.0250
1394.00,0.0245
1393.00,0.0242
1392.00,0.0239
1391.00,0.0237
1390.00,0.0234
1389.00,0.0231
1388.00,0.0229
1387.00,0.0228
1386.00,0.0228
1385.00,0.0229
1384.00,0.0230
1383.00,0.0232
1382.00,0.0233
1381.00,0.0234
1380.00,0.0234
1379.00,0.0234
1378.00,0.0234
1377.00,0.0234
1376.00,0.0233
1375.00,0.0231
1374.00,0.0229
1373.00,0.0226
1372.00,0.0223
1371.00,0.0221
1370.00,0.0219
1369.00,0.0215
1368.00,0.0210
1367.00,0.0206
1366.00,0.0202
1365.00,0.0197
1364.00,0.0192
1363.00,0.0187
1362.00,0.0182
1361.00,0.0179
1360.00,0.0177
1359.00,0.0175
1358.00,0.0172
1357.00,0.0169
1356.00,0.0166
1355.00,0.0163
1354.00,0.0160
1353.00,0.0156
1352.00,0.0152
1351.00,0.0148
1350.00,0.0144
1349.00,0.0139
1348.00,0.0134
1347.00,0.0129
1346.00,0.0124
1345.00,0.0119
1344.00,0.0114
1343.00,0.0110
1342.00,0.0105
1341.00,0.0101
1340.00,0.0095
1339.00,0.0090
1338.00,0.0085
1337.00,0.0082
1336.00,0.0078
1335.00,0.0075
1334.00,0.0072
1333.00,0.0068
1332.00,0.0065
1331.00,0.0063
1330.00,0.0061
1329.00,0.0060
1328.00,0.0059
1327.00,0.0059
1326.00,0.0059
1325.00,0.0059
1324.00,0.0060
1323.00,0.0062
1322.00,0.0063
1321.00,0.0065
1320.00,0.0067
1319.00,0.0068
1318.00,0.0069
1317.00,0.0070
1316.00,0.0071
1315.00,0.0071
1314.00,0.0071
1313.00,0.0072
1312.00,0.0072
1311.00,0.0073
1310.00,0.0074
1309.00,0.0075
1308.00,0.0076
1307.00,0.0077
1306.00,0.0079
1305.00,0.0081
1304.00,0.0085
1303.00,0.0089
1302.00,0.0093
1301.00,0.0099
1300.00,0.0105
1299.00,0.0112
1298.00,0.0120
1297.00,0.0129
1296.00,0.0139
1295.00,0.0150
1294.00,0.0162
1293.00,0.0176
1292.00,0.0191
1291.00,0.0207
1290.00,0.0224
1289.00,0.0242
1288.00,0.0263
1287.00,0.0284
1286.00,0.0307
1285.00,0.0330
1284.00,0.0354
1283.00,0.0380
1282.00,0.0406
1281.00,0.0433
1280.00,0.0461
1279.00,0.0489
1278.00,0.0518
1277.00,0.0547
1276.00,0.0576
1275.00,0.0605
1274.00,0.0634
1273.00,0.0663
1272.00,0.0693
1271.00,0.0722
1270.00,0.0751
1269.00,0.0779
1268.00,0.0806
1267.00,0.0833
1266.00,0.0858
1265.00,0.0883
1264.00,0.0907
1263.00,0.0929
1262.00,0.0951
1261.00,0.0972
1260.00,0.0992
1259.00,0.1011
1258.00,0.1029
1257.00,0.1046
1256.00,0.1062
1255.00,0.1078
1254.00,0.1091
1253.00,0.1104
1252.00,0.1117
1251.00,0.1128
1250.00,0.1138
1249.00,0.1148
1248.00,0.1157
1247.00,0.1167
1246.00,0.1176
1245.00,0.1186
1244.00,0.1195
1243.00,0.1205
1242.00,0.1215
1241.00,0.1225
1240.00,0.1236
1239.00,0.1248
1238.00,0.1259
1237.00,0.1271
1236.00,0.1283
1235.00,0.1296
1234.00,0.1308
1233.00,0.1320
1232.00,0.1333
1231.00,0.1346
1230.00,0.1358
1229.00,0.1370
1228.00,0.1381
1227.00,0.1392
1226.00,0.1402
1225.00,0.1412
1224.00,0.1421
1223.00,0.1430
1222.00,0.1436
1221.00,0.1441
1220.00,0.1445
1219.00,0.1446
1218.00,0.1444
1217.00,0.1440
1216.00,0.1434
1215.00,0.1426
1214.00,0.1414
1213.00,0.1399
1212.00,0.1383
1211.00,0.1364
1210.00,0.1343
1209.00,0.1320
1208.00,0.1296
1207.00,0.1270
1206.00,0.1243
1205.00,0.1216
1204.00,0.1188
1203.00,0.1159
1202.00,0.1131
1201.00,0.1104
1200.00,0.1078
1199.00,0.1054
1198.00,0.1031
1197.00,0.1010
1196.00,0.0990
1195.00,0.0971
1194.00,0.0954
1193.00,0.0937
1192.00,0.0920
1191.00,0.0903
1190.00,0.0884
1189.00,0.0866
1188.00,0.0849
1187.00,0.0832
1186.00,0.0817
1185.00,0.0803
1184.00,0.0791
1183.00,0.0781
1182.00,0.0773
1181.00,0.0767
1180.00,0.0764
1179.00,0.0764
1178.00,0.0765
1177.00,0.0769
1176.00,0.0775
1175.00,0.0783
1174.00,0.0792
1173.00,0.0803
1172.00,0.0817
1171.00,0.0833
1170.00,0.0852
1169.00,0.0873
1168.00,0.0896
1167.00,0.0921
1166.00,0.0947
1165.00,0.0973
1164.00,0.1000
1163.00,0.1026
1162.00,0.1052
1161.00,0.1076
1160.00,0.1099
1159.00,0.1121
1158.00,0.1139
1157.00,0.1156
1156.00,0.1169
1155.00,0.1180
1154.00,0.1189
1153.00,0.1195
1152.00,0.1198
1151.00,0.1198
1150.00,0.1196
1149.00,0.1190
1148.00,0.1182
1147.00,0.1170
1146.00,0.1157
1145.00,0.1143
1144.00,0.1128
1143.00,0.1112
1142.00,0.1097
1141.00,0.1083
1140.00,0.1070
1139.00,0.1058
1138.00,0.1048
1137.00,0.1040
1136.00,0.1033
1135.00,0.1028
1134.00,0.1025
1133.00,0.1025
1132.00,0.1027
1131.00,0.1031
1130.00,0.1038
1129.00,0.1046
1128.00,0.1055
1127.00,0.1063
1126.00,0.1066
1125.00,0.1065
1124.00,0.1059
1123.00,0.1048
1122.00,0.1032
1121.00,0.1015
1120.00,0.0997
1119.00,0.0978
1118.00,0.0959
1117.00,0.0942
1116.00,0.0926
1115.00,0.0913
1114.00,0.0901
1113.00,0.0891
1112.00,0.0884
1111.00,0.0880
1110.00,0.0878
1109.00,0.0880
1108.00,0.0885
1107.00,0.0893
1106.00,0.0904
1105.00,0.0918
1104.00,0.0934
1103.00,0.0953
1102.00,0.0972
1101.00,0.0994
1100.00,0.1016
1099.00,0.1040
1098.00,0.1064
1097.00,0.1088
1096.00,0.1112
1095.00,0.1135
1094.00,0.1158
1093.00,0.1182
1092.00,0.1206
1091.00,0.1232
1090.00,0.1258
1089.00,0.1284
1088.00,0.1311
1087.00,0.1339
1086.00,0.1367
1085.00,0.1397
1084.00,0.1428
1083.00,0.1460
1082.00,0.1493
1081.00,0.1527
1080.00,0.1561
1079.00,0.1594
1078.00,0.1625
1077.00,0.1653
1076.00,0.1679
1075.00,0.1701
1074.00,0.1720
1073.00,0.1734
1072.00,0.1745
1071.00,0.1752
1070.00,0.1755
1069.00,0.1756
1068.00,0.1753
1067.00,0.1748
1066.00,0.1741
1065.00,0.1733
1064.00,0.1724
1063.00,0.1715
1062.00,0.1706
1061.00,0.1698
1060.00,0.1692
1059.00,0.1688
1058.00,0.1687
1057.00,0.1689
1056.00,0.1695
1055.00,0.1705
1054.00,0.1717
1053.00,0.1734
1052.00,0.1754
1051.00,0.1777
1050.00,0.1803
1049.00,0.1833
1048.00,0.1866
1047.00,0.1901
1046.00,0.1934
1045.00,0.1966
1044.00,0.1996
1043.00,0.2023
1042.00,0.2045
1041.00,0.2062
1040.00,0.2076
1039.00,0.2085
1038.00,0.2091
1037.00,0.2096
1036.00,0.2102
1035.00,0.2106
1034.00,0.2111
1033.00,0.2119
1032.00,0.2128
1031.00,0.2139
1030.00,0.2149
1029.00,0.2159
1028.00,0.2166
1027.00,0.2168
1026.00,0.2166
1025.00,0.2161
1024.00,0.2154
1023.00,0.2143
1022.00,0.2131
1021.00,0.2119
1020.00,0.2105
1019.00,0.2088
1018.00,0.2069
1017.00,0.2049
1016.00,0.2027
1015.00,0.2003
1014.00,0.1977
1013.00,0.1951
1012.00,0.1924
1011.00,0.1897
1010.00,0.1869
1009.00,0.1842
1008.00,0.1815
1007.00,0.1787
1006.00,0.1758
1005.00,0.1728
1004.00,0.1695
1003.00,0.1660
1002.00,0.1620
1001.00,0.1578
1000.00,0.1534
999.00,0.1487
998.00,0.1440
997.00,0.1394
996.00,0.1350
995.00,0.1306
994.00,0.1264
993.00,0.1224
992.00,0.1184
991.00,0.1144
990.00,0.1104
989.00,0.1065
988.00,0.1026
987.00,0.0989
986.00,0.0953
985.00,0.0918
984.00,0.0885
983.00,0.0854
982.00,0.0826
981.00,0.0801
980.00,0.0779
979.00,0.0758
978.00,0.0738
977.00,0.0720
976.00,0.0701
975.00,0.0683
974.00,0.0664
973.00,0.0644
972.00,0.0622
971.00,0.0599
970.00,0.0573
969.00,0.0545
968.00,0.0514
967.00,0.0481
966.00,0.0446
965.00,0.0409
964.00,0.0373
963.00,0.0337
962.00,0.0303
961.00,0.0271
960.00,0.0244
959.00,0.0219
958.00,0.0197
957.00,0.0177
956.00,0.0160
955.00,0.0145
954.00,0.0133
953.00,0.0124
952.00,0.0118
951.00,0.0113
950.00,0.0110
949.00,0.0110
948.00,0.0111
947.00,0.0115
946.00,0.0121
945.00,0.0129
944.00,0.0141
943.00,0.0156
942.00,0.0174
941.00,0.0195
940.00,0.0218
939.00,0.0243
938.00,0.0268
937.00,0.0293
936.00,0.0318
935.00,0.0340
934.00,0.0359
933.00,0.0373
932.00,0.0382
931.00,0.0387
930.00,0.0387
929.00,0.0384
928.00,0.0376
927.00,0.0365
926.00,0.0352
925.00,0.0338
924.00,0.0325
923.00,0.0311
922.00,0.0297
921.00,0.0283
920.00,0.0269
919.00,0.0255
918.00,0.0241
917.00,0.0228
916.00,0.0216
915.00,0.0204
914.00,0.0193
913.00,0.0183
912.00,0.0173
911.00,0.0165
910.00,0.0158
909.00,0.0153
908.00,0.0149
907.00,0.0145
906.00,0.0141
905.00,0.0137
904.00,0.0134
903.00,0.0130
902.00,0.0127
901.00,0.0124
900.00,0.0122
899.00,0.0119
898.00,0.0117
897.00,0.0117
896.00,0.0117
895.00,0.0118
894.00,0.0119
893.00,0.0120
892.00,0.0122
891.00,0.0123
890.00,0.0124
889.00,0.0124
888.00,0.0123
887.00,0.0120
886.00,0.0115
885.00,0.0108
884.00,0.0100
883.00,0.0090
882.00,0.0080
881.00,0.0071
880.00,0.0063
879.00,0.0057
878.00,0.0053
877.00,0.0051
876.00,0.0052
875.00,0.0054
874.00,0.0057
873.00,0.0060
872.00,0.0061
871.00,0.0060
870.00,0.0059
869.00,0.0057
868.00,0.0056
867.00,0.0056
866.00,0.0057
865.00,0.0060
864.00,0.0065
863.00,0.0071
862.00,0.0079
861.00,0.0090
860.00,0.0102
859.00,0.0117
858.00,0.0133
857.00,0.0150
856.00,0.0169
855.00,0.0189
854.00,0.0209
853.00,0.0230
852.00,0.0251
851.00,0.0270
850.00,0.0288
849.00,0.0304
848.00,0.0318
847.00,0.0330
846.00,0.0339
845.00,0.0344
844.00,0.0347
843.00,0.0347
842.00,0.0346
841.00,0.0343
840.00,0.0341
839.00,0.0339
838.00,0.0338
837.00,0.0337
836.00,0.0335
835.00,0.0333
834.00,0.0329
833.00,0.0325
832.00,0.0319
831.00,0.0311
830.00,0.0302
829.00,0.0292
828.00,0.0281
827.00,0.0270
826.00,0.0259
825.00,0.0248
824.00,0.0239
823.00,0.0231
822.00,0.0223
821.00,0.0215
820.00,0.0206
819.00,0.0198
818.00,0.0190
817.00,0.0184
816.00,0.0179
815.00,0.0175
814.00,0.0171
813.00,0.0167
812.00,0.0162
811.00,0.0158
810.00,0.0155
809.00,0.0151
808.00,0.0146
807.00,0.0140
806.00,0.0134
805.00,0.0128
804.00,0.0122
803.00,0.0117
802.00,0.0110
801.00,0.0103
800.00,0.0096
799.00,0.0090
798.00,0.0084
797.00,0.0079
796.00,0.0073
795.00,0.0068
794.00,0.0064
793.00,0.0061
792.00,0.0059
791.00,0.0058
790.00,0.0057
789.00,0.0055
788.00,0.0054
787.00,0.0054
786.00,0.0056
785.00,0.0057
784.00,0.0060
783.00,0.0062
782.00,0.0065
781.00,0.0068
780.00,0.0072
779.00,0.0078
778.00,0.0084
777.00,0.0092
776.00,0.0098
775.00,0.0103
774.00,0.0106
773.00,0.0108
772.00,0.0109
771.00,0.0109
770.00,0.0107
769.00,0.0102
768.00,0.0097
767.00,0.0091
766.00,0.0085
765.00,0.0080
764.00,0.0076
763.00,0.0071
762.00,0.0067
761.00,0.0064
760.00,0.0063
759.00,0.0063
758.00,0.0062
757.00,0.0062
756.00,0.0062
755.00,0.0064
754.00,0.0069
753.00,0.0076
752.00,0.0086
751.00,0.0096
750.00,0.0106
749.00,0.0116
748.00,0.0126
747.00,0.0135
746.00,0.0145
745.00,0.0153
744.00,0.0160
743.00,0.0166
742.00,0.0170
741.00,0.0173
740.00,0.0175
739.00,0.0177
738.00,0.0178
737.00,0.0179
736.00,0.0181
735.00,0.0182
734.00,0.0182
733.00,0.0181
732.00,0.0181
731.00,0.0180
730.00,0.0181
729.00,0.0182
728.00,0.0183
727.00,0.0185
726.00,0.0187
725.00,0.0189
724.00,0.0191
723.00,0.0191
722.00,0.0190
721.00,0.0188
720.00,0.0185
719.00,0.0181
718.00,0.0177
717.00,0.0173
716.00,0.0171
715.00,0.0168
714.00,0.0167
713.00,0.0166
712.00,0.0166
711.00,0.0169
710.00,0.0173
709.00,0.0180
708.00,0.0187
707.00,0.0194
706.00,0.0201
705.00,0.0209
704.00,0.0216
703.00,0.0222
702.00,0.0227
701.00,0.0230
700.00,0.0232
699.00,0.0232
698.00,0.0229
697.00,0.0225
696.00,0.0218
695.00,0.0209
694.00,0.0200
693.00,0.0189
692.00,0.0178
691.00,0.0165
690.00,0.0153
689.00,0.0143
688.00,0.0136
687.00,0.0130
686.00,0.0123
685.00,0.0115
684.00,0.0107
683.00,0.0099
682.00,0.0093
681.00,0.0089
680.00,0.0087
679.00,0.0086
678.00,0.0084
677.00,0.0083
676.00,0.0083
675.00,0.0085
674.00,0.0088
673.00,0.0091
672.00,0.0091
671.00,0.0085
670.00,0.0077
669.00,0.0074
668.00,0.0088
667.00,0.0108
666.00,0.0119
665.00,0.0119
664.00,0.0116
663.00,0.0118
662.00,0.0124
661.00,0.0132
660.00,0.0141
659.00,0.0149
658.00,0.0154
657.00,0.0155
656.00,0.0152
655.00,0.0145
654.00,0.0135
653.00,0.0125
652.00,0.0115
651.00,0.0106
650.00,0.0099
649.00,0.0093
648.00,0.0089
647.00,0.0086
646.00,0.0085
645.00,0.0084
644.00,0.0084
643.00,0.0082
642.00,0.0078
641.00,0.0072
640.00,0.0067
639.00,0.0061
638.00,0.0057
637.00,0.0056
636.00,0.0058
635.00,0.0065
634.00,0.0074
633.00,0.0085
632.00,0.0097
631.00,0.0111
630.00,0.0124
629.00,0.0140
628.00,0.0158
627.00,0.0177
626.00,0.0197
625.00,0.0218
624.00,0.0241
623.00,0.0263
622.00,0.0284
621.00,0.0306
620.00,0.0329
619.00,0.0353
618.00,0.0375
617.00,0.0395
616.00,0.0414
615.00,0.0430
614.00,0.0441
613.00,0.0448
612.00,0.0453
611.00,0.0456
610.00,0.0460
609.00,0.0465
608.00,0.0472
607.00,0.0478
606.00,0.0485
605.00,0.0493
604.00,0.0502
603.00,0.0511
602.00,0.0519
601.00,0.0526
600.00,0.0536
599.00,0.0546
598.00,0.0555
597.00,0.0563
596.00,0.0570
595.00,0.0573
594.00,0.0573
593.00,0.0572
592.00,0.0573
591.00,0.0574
590.00,0.0575
589.00,0.0580
588.00,0.0590
587.00,0.0602
586.00,0.0612
585.00,0.0621
584.00,0.0633
583.00,0.0647
582.00,0.0660
581.00,0.0671
580.00,0.0682
579.00,0.0690
578.00,0.0691
577.00,0.0688
576.00,0.0684
575.00,0.0676
574.00,0.0664
573.00,0.0651
572.00,0.0639
571.00,0.0628
570.00,0.0615
569.00,0.0598
568.00,0.0582
567.00,0.0564
566.00,0.0545
565.00,0.0527
564.00,0.0513
563.00,0.0501
562.00,0.0490
561.00,0.0479
560.00,0.0472
559.00,0.0465
558.00,0.0459
557.00,0.0454
556.00,0.0450
555.00,0.0445
554.00,0.0435
553.00,0.0426
552.00,0.0419
551.00,0.0414
550.00,0.0408
549.00,0.0404
548.00,0.0405
547.00,0.0408
546.00,0.0408
545.00,0.0406
544.00,0.0404
543.00,0.0401
542.00,0.0398
541.00,0.0396
540.00,0.0396
539.00,0.0395
538.00,0.0392
537.00,0.0389
536.00,0.0387
535.00,0.0383
534.00,0.0377
533.00,0.0371
532.00,0.0369
531.00,0.0367
530.00,0.0362
529.00,0.0355
528.00,0.0350
527.00,0.0349
526.00,0.0350
525.00,0.0355
524.00,0.0364
523.00,0.0370
522.00,0.0369
521.00,0.0364
520.00,0.0359
519.00,0.0355
518.00,0.0348
517.00,0.0341
516.00,0.0334
515.00,0.0324
514.00,0.0311
513.00,0.0297
512.00,0.0289
511.00,0.0285
510.00,0.0280
509.00,0.0271
508.00,0.0260
507.00,0.0251
506.00,0.0244
505.00,0.0240
504.00,0.0237
503.00,0.0232
502.00,0.0222
501.00,0.0213
500.00,0.0209
499.00,0.0209
498.00,0.0210
497.00,0.0212
496.00,0.0215
495.00,0.0215
494.00,0.0208
493.00,0.0200
492.00,0.0196
491.00,0.0197
490.00,0.0197
489.00,0.0193
488.00,0.0190
487.00,0.0187
486.00,0.0187
485.00,0.0191
484.00,0.0198
483.00,0.0203
482.00,0.0205
481.00,0.0206
480.00,0.0212
479.00,0.0216
478.00,0.0212
477.00,0.0200
476.00,0.0189
475.00,0.0180
474.00,0.0172
473.00,0.0167
472.00,0.0170
471.00,0.0174
470.00,0.0171
469.00,0.0164
468.00,0.0158
467.00,0.0153
466.00,0.0145
465.00,0.0137
464.00,0.0134
463.00,0.0137
462.00,0.0139
461.00,0.0139
460.00,0.0139
459.00,0.0137
458.00,0.0129
457.00,0.0118
456.00,0.0107
455.00,0.0090
454.00,0.0070
453.00,0.0055
452.00,0.0052
451.00,0.0054
450.00,0.0053
